,subj_idx,SESSION,RUN,TRIAL,X73KID,ISOLD,ISCORRECT,rt,CHANGEMIND,MEMORYRECENT,MEMORYFIRST,ISOLDCURRENT,ISCORRECTCURRENT,TOTAL1,TOTAL2,response,MISSINGDATA,trial_full,is_shared1000,is_special100,shared1000_repNum,recall_condition,MTL_ROI_Beta,Beta_ERC,Beta_BA35,Beta_BA36,Beta_SUB,Beta_CA1,Beta_CA2,Beta_CA3,Beta_DG,Beta_PHC,Beta_HT,result
786,1,2,1,49,5603,1,1,1.8040085399989,0,565.0,,0,0,0,1,1,0,799,1,0,2,hard,0.306059674734281,0.209169082125604,0.408547717842324,0.148757668711656,0.362247619047619,0.217892561983471,0.37156862745098,0.122291666666667,0.357703412073491,1.07990950226244,0.0393440428380187,HIT
787,1,2,1,50,3627,1,1,1.16715735301841,0,224.0,,0,0,0,1,1,0,800,1,0,2,hard,0.388681009092073,0.302212560386473,0.382586445366528,0.341549079754601,0.381019047619048,0.189090909090909,0.445294117647059,0.2465625,0.685262467191601,0.937707390648567,0.0671218206157965,HIT
809,1,2,2,9,4787,1,1,1.23578777100192,0,131.0,418.0,0,0,0,1,1,0,822,1,0,3,hard,0.56371238314765,0.677642512077295,0.71627939142462,0.383849693251534,0.601190476190476,0.151432506887052,0.295294117647059,1.06083333333333,0.74494750656168,1.17853695324284,0.301044176706827,HIT
831,1,2,2,33,14529,1,1,0.909421033982653,0,120.0,244.0,0,0,0,1,1,0,846,1,0,3,hard,-0.2110731207581,-0.348850241545894,0.0499308437067773,-0.17851226993865,-0.230171428571428,-0.162548209366391,-0.111960784313725,-0.882291666666667,-0.38237532808399,-0.151674208144796,-0.176854082998661,HIT
1052,1,2,6,8,38818,1,1,0.843925245999344,0,550.0,,0,0,0,1,1,0,1071,1,0,2,hard,0.0231950313740555,-0.729864734299517,0.71582295988935,0.147735173824131,-0.162638095238095,-0.428181818181818,0.374901960784314,0.2959375,0.0862860892388451,1.21571644042232,-0.411834002677376,HIT
1534,1,3,2,1,42300,1,1,1.5440784060047,0,101.0,,0,0,0,1,1,0,1564,1,0,2,hard,0.249490331668588,0.213188405797101,0.437275242047026,-0.207244376278119,0.192457142857143,0.214242424242424,0.46078431372549,0.729375,0.503845144356955,1.18352941176471,0.26384203480589,HIT
1545,1,3,2,12,62961,1,1,1.16229115400347,0,74.0,,0,0,0,1,1,0,1575,1,0,2,hard,0.270776027660392,-0.19951690821256,0.685947441217151,0.563364008179959,0.1596,0.232809917355372,-0.20843137254902,0.321041666666667,0.235616797900262,0.521146304675717,-0.212503346720214,HIT
1563,1,3,2,30,7208,1,0,-2.11748434300534,0,245.0,,0,1,1,0,0,0,1593,1,1,2,hard,0.321886285055705,0.177748792270531,0.592738589211618,0.370940695296524,0.289657142857143,0.068732782369146,0.118627450980392,0.353854166666667,0.125918635170604,0.771191553544495,0.233226238286479,MISS
1566,1,3,2,33,9435,1,1,1.61761178201414,0,104.0,,0,0,0,1,1,0,1596,1,0,2,hard,-0.26996158278909,-1.25415458937198,-0.529626556016597,0.165705521472393,-0.258038095238095,-0.0474242424242424,-0.359019607843137,-0.245104166666667,-0.289422572178478,-0.285882352941176,0.0080455153949129,HIT
1619,1,3,3,25,8110,1,1,1.05794073798461,0,452.0,,0,0,0,1,1,0,1650,1,0,2,hard,0.0878857728262261,-0.582917874396135,-0.294356846473029,0.779151329243354,-0.123285714285714,0.224435261707989,-0.366862745098039,-0.028125,-0.0555511811023622,0.336561085972851,-0.28710843373494,HIT
1688,1,3,4,31,7841,1,1,1.58894307099399,0,324.0,,0,0,0,1,1,0,1719,1,0,2,hard,0.103987706492509,0.136502415458937,0.75091286307054,0.275659509202454,-0.110657142857143,-0.216859504132231,0.232745098039216,-0.0147916666666667,-0.159750656167979,0.236365007541478,-0.24516733601071,HIT
2221,1,4,1,22,25269,1,0,-1.33145216099365,0,58.0,,0,1,1,0,0,0,2272,1,0,2,hard,0.110624919964144,0.732057971014493,-0.118160442600277,0.320025562372188,0.163438095238095,0.0598760330578512,0.0131372549019607,-0.617291666666667,-0.258097112860892,-0.288099547511312,-0.271967871485944,MISS
2253,1,4,1,54,9148,1,1,1.05070947000058,0,115.0,146.0,0,0,0,1,1,0,2304,1,0,3,hard,0.0788769368677167,0.0540676328502414,0.113471645919779,0.227668711656442,-0.207104761904762,-0.119669421487603,-0.0198039215686274,-0.420833333333333,-0.0651706036745406,0.624509803921569,0.0187282463186077,HIT
2268,1,4,2,6,11160,1,0,-1.12967445800314,0,1616.0,,0,1,1,0,0,0,2319,1,0,2,hard,0.41860929696504,0.238048309178744,0.665297372060858,0.56638036809816,0.267057142857143,-0.210619834710744,0.242156862745098,0.8125,0.195682414698163,1.39785822021116,0.187349397590361,MISS
2333,1,4,3,9,40424,1,0,-1.61139016000379,0,309.0,,0,1,1,0,0,0,2384,1,0,2,hard,0.376813932641824,0.52775845410628,0.560442600276625,0.268256646216769,0.188714285714286,-0.0579201101928374,-0.207450980392157,0.3403125,0.229435695538058,1.53039215686274,0.132168674698795,MISS
2395,1,4,4,9,28596,1,0,-1.45285563200014,0,334.0,,0,1,1,0,0,0,2447,1,1,2,hard,0.201893968497887,-0.812309178743961,0.588644536652835,0.366625766871166,0.243438095238095,-0.0479201101928374,0.366274509803922,0.486979166666667,0.503031496062992,0.997797888386124,-0.0756091030789826,MISS
2488,1,4,5,44,60506,1,1,1.06932708800014,0,1103.0,,0,0,0,1,1,0,2544,1,0,2,hard,0.0396171084645921,-0.0034589371980677,0.32746887966805,0.129320040899795,-0.061047619047619,-0.11469696969697,0.13,-0.0558333333333332,-0.387270341207349,0.689622926093514,-0.258072289156626,HIT
2517,1,4,6,10,7860,1,1,0.662028183003713,0,1394.0,,0,0,0,1,1,0,2573,1,0,2,hard,0.0741016775515431,-0.159420289855072,0.387399723374827,0.324033742331288,-0.0186,0.0604683195592286,0.121176470588235,-0.205416666666667,-0.172283464566929,0.269457013574661,-0.305809906291834,HIT
2705,1,4,9,19,21280,1,1,2.04829442600021,0,765.0,,0,0,0,1,1,0,2769,1,0,2,hard,0.23547189140735,-0.149613526570048,0.407178423236514,0.317157464212679,0.136942857142857,0.291349862258953,0.0137254901960784,0.034375,0.174120734908136,0.474238310708899,0.364779116465863,HIT
2719,1,4,9,33,16703,1,1,1.62965654199797,0,2000.0,,0,0,0,1,1,0,2783,1,0,2,hard,0.336528364707389,0.211033816425121,0.532586445366528,0.497188139059305,0.278771428571429,-0.17637741046832,0.644509803921569,0.492083333333333,0.138031496062992,0.924675716440422,0.11908969210174,HIT
2765,1,4,10,16,4931,1,0,-1.78004383799998,0,2771.0,,0,1,1,0,0,0,2829,1,0,2,hard,0.383138686131387,-0.0860966183574879,0.792019363762102,0.274529652351738,0.331247619047619,0.286101928374656,0.109607843137255,0.535833333333333,0.306679790026247,1.58488687782805,0.0996117804551539,MISS
2766,1,4,10,17,37225,1,1,1.60478812299698,0,1261.0,,0,0,0,1,1,0,2830,1,1,2,hard,0.460299654245102,0.0979033816425121,1.00643153526971,0.87659509202454,0.246733333333333,0.428829201101928,0.0005882352941176,-0.344583333333333,0.19489501312336,0.391749622926093,0.14095046854083,HIT
2771,1,4,10,22,67830,1,0,-1.41795720899972,0,1546.0,,0,1,1,0,0,0,2835,1,1,2,hard,0.382436931745422,0.410019323671498,0.574716459197787,0.335138036809816,0.185295238095238,0.0416115702479338,0.782156862745098,0.340625,0.284475065616798,1.27387631975867,0.177135207496653,MISS
2791,1,4,10,42,31748,1,1,1.45547860700026,0,750.0,,0,0,0,1,1,0,2855,1,0,2,hard,-0.250329107440133,-0.0317971014492753,-0.193098201936376,-0.572070552147239,-0.366190476190476,-0.135606060606061,0.0209803921568627,-0.468333333333333,-0.355249343832021,0.600120663650075,-0.352971887550201,HIT
2933,1,5,1,3,22264,1,0,-1.58955243499986,0,19.0,319.0,0,1,2,0,0,0,3003,1,0,3,hard,0.239608144448713,-0.230541062801932,0.397800829875519,0.324135991820041,0.0298666666666666,0.55995867768595,0.260196078431372,-0.146770833333333,0.199120734908136,1.15485671191554,-0.222730923694779,MISS
2946,1,5,1,16,59047,1,0,-1.15122095600009,0,76.0,,0,1,1,0,0,0,3016,1,0,2,hard,0.387301831220387,0.115497584541063,0.912863070539419,0.421998977505113,0.229685714285714,-0.0023553719008264,0.284117647058823,0.400833333333333,0.475419947506562,0.885867269984917,0.237536813922356,MISS
2966,1,5,1,36,17550,1,0,-1.10579654000003,0,305.0,,0,1,1,0,0,0,3036,1,0,2,hard,0.376966320911768,0.110966183574879,0.714426002766252,0.374268916155419,0.316152380952381,0.44698347107438,0.332549019607843,-0.189791666666666,0.335629921259842,0.836742081447964,0.153360107095047,MISS
2978,1,5,1,48,14645,1,0,-1.95507249399998,0,1822.0,,0,1,1,0,0,0,3048,1,0,2,hard,-0.384298885900884,-0.267468599033816,0.145587828492393,-0.535894683026585,-0.737371428571429,-0.1216391184573,0.263333333333333,-0.638125,-0.542821522309711,-0.260829562594268,-0.380548862115127,MISS
3013,1,5,2,23,72313,1,1,1.44175779299985,0,165.0,,0,0,0,1,1,0,3086,1,0,2,hard,0.513880138301959,1.17199033816425,0.234605809128631,0.328537832310838,0.50712380952381,0.232190082644628,0.205490196078431,0.772708333333333,0.646889763779528,1.06342383107089,0.0052878179384203,HIT
3035,1,5,2,45,69215,1,1,1.15527489999977,0,182.0,,0,0,0,1,1,0,3108,1,0,2,hard,0.70074273274427,0.938550724637681,0.892047026279391,0.759775051124744,0.522619047619048,-0.0143112947658401,0.0539215686274509,0.756041666666667,0.712664041994751,1.57012066365008,0.230120481927711,HIT
3060,1,5,3,9,46161,1,1,1.34249588400007,0,187.0,,0,0,0,1,1,0,3134,1,0,2,hard,0.430487898578563,-0.34783574879227,0.992461964038728,1.10338957055215,0.102342857142857,-0.0058677685950413,-0.199607843137255,-0.0034375,0.246469816272966,0.943197586726998,-0.0802275769745649,HIT
3076,1,5,3,26,33190,1,1,0.82168986600027,0,203.0,,0,0,0,1,1,0,3151,1,0,2,hard,0.302693046484825,0.0687053140096617,0.466154910096819,0.0847290388548057,0.312952380952381,0.0973415977961432,0.560980392156863,0.899791666666667,0.426994750656168,0.635686274509804,0.707858099062918,HIT
3138,1,5,4,25,22588,1,1,1.14532057399992,0,651.0,,0,0,0,1,1,0,3213,1,0,2,hard,0.494950697912665,2.27777777777778,0.346791147994467,0.439918200408998,0.284971428571429,-0.152796143250689,0.088235294117647,0.195208333333333,0.151837270341207,0.47156862745098,-0.325997322623829,HIT
3169,1,5,4,58,69131,1,0,-1.03988651700001,0,1304.0,,0,1,1,0,0,0,3246,1,0,2,hard,0.59821872198745,1.25974879227053,1.03734439834025,0.492193251533742,0.429647619047619,0.0396831955922864,0.697254901960784,0.941770833333333,0.604514435695538,0.730723981900452,0.13908969210174,MISS
3232,1,5,5,62,47409,1,1,1.11644464199981,0,355.0,,0,0,0,1,1,0,3312,1,0,2,hard,0.555238826994493,-0.103652173913043,0.993858921161826,0.909831288343558,0.172666666666667,0.264214876033058,0.35078431372549,0.648229166666667,0.505551181102362,1.50550527903469,0.145020080321285,HIT
3295,1,5,6,62,40841,1,0,-0.9687044960001,0,2460.0,,0,1,1,0,0,0,3375,1,0,2,hard,-0.148305800998847,-0.741304347826087,0.231908713692946,-0.04140081799591,-0.331885714285714,-0.0294352617079889,0.0127450980392157,-0.405416666666667,-0.334160104986877,0.651945701357466,-0.330722891566265,MISS
3321,1,5,7,26,30082,1,1,1.90550095900016,0,2237.0,2389.0,0,0,0,1,1,0,3401,1,0,3,hard,0.261509796388782,0.0109661835748792,0.597385892116182,0.208379345603272,-0.0083714285714285,0.146432506887052,0.0890196078431372,-0.2740625,0.367965879265092,1.2710407239819,-0.0101204819277108,HIT
3397,1,5,8,42,10108,1,0,-0.754793946999598,0,510.0,,0,1,1,0,0,0,3480,1,0,2,hard,0.266185170956589,0.228985507246377,0.431632088520055,0.155802658486707,0.219133333333333,-0.008457300275482,0.635098039215686,0.375416666666667,0.203923884514436,1.42947209653092,-0.228500669344043,MISS
3519,1,5,10,43,16918,1,0,-2.00727701600044,0,1307.0,,0,1,1,0,0,0,3606,1,0,2,hard,-0.097879369957741,-0.804425120772947,0.346984785615491,0.250618609406953,-0.345238095238095,-0.0095730027548209,-0.0903921568627451,-0.235104166666667,-0.128412073490814,0.0247812971342383,-0.260763052208835,MISS
3546,1,5,11,9,40576,1,0,-1.24428691499998,0,3327.0,,0,1,1,0,0,0,3634,1,0,2,hard,0.101810731207581,-0.580367149758454,0.189488243430152,-0.150674846625767,0.254580952380952,-0.100289256198347,0.265294117647059,1.00385416666667,0.261981627296588,1.3494419306184,0.207135207496653,MISS
3638,1,5,12,40,15940,1,0,-1.08996165699955,0,2407.0,,0,1,1,0,0,0,3728,1,0,2,hard,-0.201659623511333,-0.0248212560386473,-0.102655601659751,-0.258481595092025,-0.108409523809524,-0.350055096418733,0.282549019607843,0.283854166666667,-0.311259842519685,-0.321432880844645,-0.257911646586345,MISS
3680,1,6,1,22,19934,1,1,1.46969349100254,0,169.0,,0,0,0,1,1,0,3772,1,0,2,hard,0.279875784351389,0.411072463768116,0.401078838174274,-0.0745501022494887,-0.0610666666666666,0.170027548209366,0.271372549019608,0.762708333333333,0.701824146981627,1.40140271493213,0.007536813922356,HIT
3685,1,6,1,27,6432,1,0,-0.864437092008302,0,3655.0,,0,1,1,0,0,0,3777,1,0,2,hard,0.309037008579844,-0.228628019323672,0.444564315352697,0.432443762781186,0.153904761904762,0.143980716253443,-0.0690196078431372,0.614583333333333,0.405538057742782,1.21666666666667,0.0606961178045515,MISS
3717,1,6,1,59,16345,1,0,-1.08521690501948,0,2558.0,,0,1,1,0,0,0,3809,1,1,2,hard,0.654417979254706,0.823613526570048,0.799253112033195,0.776283231083845,-0.0708571428571428,0.478925619834711,0.657058823529412,0.264375,0.4150656167979,2.04277526395173,0.212597054886212,MISS
3731,1,6,2,10,14595,1,1,1.63463907499681,0,2951.0,3069.0,0,0,0,1,1,0,3823,1,0,3,hard,0.535570495582021,0.0315748792270531,0.907053941908714,0.648364008179959,0.122847619047619,0.637038567493113,0.615098039215686,0.708125,0.82240157480315,1.31808446455505,0.0457831325301204,HIT
3762,1,6,2,41,25285,1,1,1.44799269700889,0,1527.0,,0,0,0,1,1,0,3854,1,0,2,hard,0.812371622486874,0.665371980676328,0.526348547717842,1.37215235173824,0.80207619047619,0.852520661157025,0.292941176470588,0.668333333333333,0.537913385826772,0.293499245852187,0.597028112449799,HIT
3770,1,6,2,49,29887,1,1,0.892902627005242,0,136.0,,0,0,0,1,1,0,3862,1,0,2,hard,0.417976693558714,0.786599033816425,0.336611341632089,0.54989263803681,0.545285714285714,-0.196542699724518,-0.310392156862745,0.305208333333333,0.269409448818898,0.803981900452489,-0.0679651941097724,HIT
3931,1,6,5,30,47322,1,1,1.05758673101082,0,400.0,,0,0,0,1,1,0,4030,1,0,2,hard,0.209340504546037,0.306888888888889,0.597745504840941,0.661431492842536,-0.435514285714286,0.0794903581267217,-0.131764705882353,-0.373229166666667,0.067020997375328,0.278823529411765,-0.271244979919679,HIT
3981,1,6,6,21,56724,1,1,1.74182848600321,0,1530.0,1773.0,0,0,0,1,1,0,4084,1,0,3,hard,0.672709693942886,0.566086956521739,0.76701244813278,0.945046012269939,0.720409523809524,0.0568044077134986,0.162941176470588,0.69125,0.560183727034121,1.18036199095023,0.244243641231593,HIT
4003,1,6,6,45,22783,1,1,1.24823311800719,0,3108.0,,0,0,0,1,1,0,4108,1,0,2,hard,0.136158278908951,0.512570048309179,0.5616459197787,0.054683026584867,-0.380428571428571,0.082961432506887,-0.301960784313726,-0.740520833333334,0.0561286089238845,0.852488687782805,-0.217590361445783,HIT
4072,1,6,7,53,8808,1,1,1.42265938001219,0,2181.0,,0,0,0,1,1,0,4178,1,0,2,hard,0.662972211550775,-0.0304734299516908,0.712116182572614,0.630260736196319,0.459904761904762,0.905426997245179,0.49921568627451,1.42958333333333,1.18514435695538,1.22748114630468,0.590629183400268,HIT
4371,1,7,1,1,58097,1,0,-0.854352830036078,0,152.0,,0,1,1,0,0,0,4501,1,0,2,hard,0.260097323600973,-0.378019323671497,0.546348547717842,0.634775051124744,0.0262095238095238,0.19103305785124,0.0113725490196078,0.3696875,0.299711286089239,0.551070889894419,-0.0137884872824631,MISS
4384,1,7,1,15,3078,1,1,1.58129136200296,0,225.0,,0,0,0,1,1,0,4515,1,1,2,hard,0.135785631963119,-0.146859903381642,0.315573997233748,-0.0552453987730061,0.111466666666667,0.0638980716253443,0.715686274509804,1.05604166666667,0.111640419947506,1.08184012066365,-0.01524765729585,HIT
4400,1,7,1,33,59632,1,1,1.51244936598232,0,188.0,,0,0,0,1,1,0,4533,1,0,2,hard,0.411034703547189,0.419449275362319,0.735836791147994,1.0719018404908,-0.193761904761905,0.0459366391184572,0.560980392156863,-0.155208333333333,-0.114711286089239,0.782247360482655,-0.171137884872825,HIT
4405,1,7,1,38,15820,1,0,-0.859719238011166,0,212.0,,0,1,1,0,0,0,4538,1,0,2,hard,0.227461902932514,0.772434782608696,-0.184094052558783,0.517484662576687,0.0752571428571428,0.0259641873278236,-0.0288235294117646,-0.03625,0.159041994750656,-0.193891402714932,0.0162248995983935,MISS
4425,1,7,1,60,43429,1,1,1.3017610120005,0,125.0,379.0,0,0,0,1,1,0,4560,1,0,3,hard,0.36507747470867,-0.07287922705314,0.856846473029046,0.418936605316973,0.181380952380952,0.40129476584022,0.451176470588235,0.666666666666667,0.308687664041995,1.25603318250377,-0.199986613119143,HIT
4486,1,7,3,3,47291,1,0,-1.10289436299354,0,971.0,,0,1,1,0,0,0,4628,1,0,2,hard,0.385529517223716,-0.302811594202899,0.617994467496542,0.394366053169734,0.491609523809524,-0.126570247933884,0.103333333333333,0.73375,0.883963254593176,1.08812971342383,0.282195448460509,MISS
4496,1,7,3,13,27276,1,1,1.44793786702212,0,157.0,,0,0,0,1,1,0,4638,1,0,2,hard,0.0812139838647714,-0.0184830917874396,0.17268326417704,0.174836400817996,-0.0512190476190476,-0.311515151515152,0.352941176470588,0.65125,0.194855643044619,0.314193061840121,0.0389959839357429,HIT
4499,1,7,3,16,16724,1,0,-1.25725354702445,0,4358.0,,0,1,1,0,0,0,4641,1,0,2,hard,-0.0210769624791906,-0.793855072463768,0.225739972337483,0.290725971370143,-0.0341142857142856,-0.113801652892562,-0.182156862745098,0.14375,-0.0917454068241469,0.568280542986425,-0.358433734939759,MISS
4680,1,7,6,23,38311,1,1,0.865068869024981,0,3626.0,,0,0,0,1,1,0,4836,1,0,2,hard,-0.147164809834806,-0.0029371980676328,-0.129156293222683,-0.0070501022494887,-0.36392380952381,-0.122479338842975,-0.0327450980392156,-0.421041666666667,-0.205590551181102,-0.703197586726999,0.129866131191432,HIT
4721,1,7,7,10,65822,1,0,-1.17128631199012,0,3212.0,,0,1,1,0,0,0,4885,1,0,2,hard,-0.244204123447304,-0.264028985507246,-0.543513139695712,-0.259616564417178,0.110047619047619,-0.290330578512397,-0.130588235294118,-0.121875,-0.556364829396325,-0.227752639517345,-0.0594511378848728,MISS
4743,1,7,7,35,46862,1,0,-0.923003511969,0,2034.0,,0,1,1,0,0,0,4910,1,0,2,hard,0.500131899090793,0.476454106280193,1.09576763485477,0.54219836400818,0.0932190476190476,0.324283746556474,0.102352941176471,0.492604166666667,0.241942257217848,1.61211161387632,-0.106278447121821,MISS
4776,1,7,8,9,8808,1,1,0.756666833010968,0,768.0,2950.0,0,0,0,1,1,0,4947,1,0,3,hard,0.406137789729799,0.48727536231884,0.465933609958506,0.554412065439673,0.0424190476190476,0.268484848484848,0.20156862745098,0.456875,0.712664041994751,0.535625942684766,0.0724631860776438,HIT
4777,1,7,8,10,66005,1,1,1.00191707798513,0,2237.0,,0,0,0,1,1,0,4948,1,1,2,hard,0.273028556793443,0.178734299516908,0.422738589211618,0.670782208588957,0.0331809523809523,0.207176308539945,-0.556274509803922,0.3621875,0.0962204724409449,0.597767722473605,-0.44429718875502,HIT
4818,1,7,8,60,37225,1,1,0.705741091980599,0,2167.0,3429.0,0,0,0,1,1,0,4998,1,1,3,hard,0.621261365091561,0.678995169082126,0.829280774550484,0.877730061349693,0.264238095238095,0.502727272727273,-0.0550980392156862,0.746458333333333,0.53750656167979,0.690950226244344,0.33908969210174,HIT
4899,1,7,10,24,3683,1,1,1.26929907803424,0,2327.0,,0,0,0,1,1,0,5087,1,0,2,hard,0.229386605199129,0.611285024154589,0.51463347164592,0.0105419222903885,-0.0401809523809524,-0.0464049586776859,-0.189411764705882,0.123541666666667,0.018503937007874,1.31616892911011,-0.0631057563587683,HIT
4939,1,7,11,5,57436,1,1,0.861374152009376,0,2959.0,,0,0,0,1,1,0,5130,1,0,2,hard,0.224141375336151,0.359584541062802,0.270290456431535,0.503583844580777,-0.089,-0.0854545454545454,-0.181960784313726,-0.0302083333333333,-0.14748031496063,0.610377073906486,0.0978447121820615,HIT
5033,1,7,12,42,13139,1,1,0.883732550020795,0,4401.0,,0,0,0,1,1,0,5230,1,1,2,hard,0.0773850685106927,-0.229816425120773,-0.0290318118948824,0.175219836400818,0.0903714285714285,0.0372451790633608,0.522745098039216,0.646041666666667,0.397204724409449,0.106968325791855,-0.0853815261044176,HIT
5034,1,7,12,43,21109,1,1,1.61517376499251,0,3898.0,,0,0,0,1,1,0,5231,1,0,2,hard,0.0332411320271481,-0.687420289855072,0.412627939142462,-0.418507157464213,0.174209523809524,0.0546280991735537,0.211764705882353,0.668854166666667,0.524475065616798,0.993031674208145,0.181673360107095,HIT
5076,1,8,1,25,34851,1,1,1.63484586599952,0,152.0,379.0,0,0,0,1,1,0,5275,1,0,3,hard,0.0105493661160199,0.327787439613527,0.0136791147994467,-0.13672290388548,-0.284704761904762,-0.0233471074380165,0.322156862745098,-0.5578125,-0.210433070866142,0.649517345399698,0.111633199464525,HIT
5103,1,8,1,53,41779,1,1,1.37817301099858,0,54.0,,0,0,0,1,1,0,5303,1,0,2,hard,-0.459544115763862,-1.05554589371981,-0.255283540802213,-0.988374233128834,-0.250142857142857,-0.202066115702479,0.414705882352941,-0.938645833333333,-0.199002624671916,0.390573152337858,-0.009718875502008,HIT
5161,1,8,2,51,13614,1,1,1.61812694900073,0,2694.0,,0,0,0,1,1,0,5364,1,1,2,hard,0.185194006915098,-0.207285024154589,0.544467496542185,0.673716768916155,-0.0762190476190476,-0.141088154269973,-0.717058823529412,-0.491875,-0.0665485564304462,0.329125188536953,0.0642971887550201,HIT
5232,1,8,4,10,71242,1,1,1.39210200000161,0,622.0,,0,0,0,1,1,0,5448,1,0,2,hard,0.926249199641439,1.52060869565217,1.08746887966805,1.00804192229039,0.393390476190476,0.402438016528926,0.65,1.0496875,0.888805774278215,1.84909502262443,0.212730923694779,HIT
5240,1,8,4,24,42564,1,1,0.715031333998922,0,626.0,,0,0,0,1,1,0,5462,1,0,2,hard,0.270315021129466,1.06689855072464,-0.057579529737206,-0.09640081799591,0.423571428571429,0.489517906336088,0.126274509803921,0.46375,0.205170603674541,0.0089592760180995,0.299143239625167,HIT
5248,1,8,4,33,36732,1,0,-1.20825030500055,0,338.0,,0,1,1,0,0,0,5471,1,0,2,hard,0.23996158278909,-0.150782608695652,0.165089903181189,0.418992842535787,0.147542857142857,0.351859504132231,-0.29078431372549,-0.470416666666667,0.54244094488189,-0.136983408748115,0.559718875502008,MISS
5257,1,8,4,44,64097,1,0,-0.904372703000263,0,392.0,,0,1,1,0,0,0,5482,1,0,2,hard,0.616069919323857,0.508512077294686,0.912005532503458,1.02760224948875,0.13007619047619,0.101446280991735,-0.0407843137254901,0.150416666666667,0.442165354330709,1.4205580693816,0.152423025435074,MISS
5297,1,8,5,28,13139,1,1,0.658757851997507,0,297.0,4699.0,0,0,0,1,1,0,5528,1,1,3,hard,0.56029197080292,0.39392270531401,0.567994467496542,0.842469325153374,0.36047619047619,0.513402203856749,0.568235294117647,0.7959375,0.69509186351706,0.68342383107089,0.093293172690763,HIT
5343,1,8,6,18,30848,1,1,0.925649872002396,0,4583.0,,0,0,0,1,1,0,5581,1,0,2,hard,0.198006146753746,0.110830917874396,0.223997233748271,0.01590490797546,0.225038095238095,0.148471074380165,0.895098039215686,0.601354166666667,0.291614173228346,1.01307692307692,-0.137724230254351,HIT
5378,1,8,6,57,55650,1,1,1.33805001400106,0,819.0,851.0,0,0,0,1,1,0,5620,1,0,3,hard,0.110371366372135,0.152405797101449,0.480138312586445,0.0217638036809815,-0.277742857142857,0.0736501377410468,0.406078431372549,-0.1065625,-0.0285958005249343,0.756500754147813,0.0834672021419009,HIT
5385,1,8,7,4,22516,1,1,1.86238580800273,0,4548.0,4720.0,0,0,0,1,1,0,5629,1,0,3,hard,0.189083109232936,-0.256154589371981,0.237192254495159,0.367244376278119,0.121571428571428,-0.053870523415978,0.414705882352941,0.555729166666667,-0.0163910761154855,1.0368778280543,0.0185408299866131,HIT
5393,1,8,7,14,61874,1,1,0.673136856999918,0,4687.0,,0,0,0,2,1,0,5639,1,1,2,hard,0.505168395441158,0.307661835748792,0.486224066390042,0.561436605316973,0.574371428571429,0.319132231404959,-0.225490196078431,0.947708333333333,0.477677165354331,1.33006033182504,0.0222757697456492,HIT
5578,1,8,10,45,26308,1,1,1.66714087500077,0,1953.0,,0,0,0,1,1,0,5858,1,0,2,hard,0.422539377641183,-0.235787439613527,0.238976486860304,0.314938650306749,0.294342857142857,0.602093663911846,0.999803921568628,1.21489583333333,0.936811023622047,1.6947963800905,0.0047523427041499,HIT
5699,1,8,12,58,26436,1,0,-1.18552236399773,0,4966.0,,0,1,1,0,0,0,5996,1,0,2,hard,0.404704827762838,0.208280193236715,0.625449515905947,0.869141104294478,0.272752380952381,0.161101928374656,0.515882352941176,0.655208333333333,-0.081745406824147,0.775279034690799,-0.203145917001339,MISS
5721,1,9,1,19,32054,1,1,2.01413439199678,0,194.0,,0,0,0,1,1,0,6019,1,0,2,hard,0.82800870790114,1.21353623188406,0.507496542185339,1.49197852760736,0.493942857142857,0.541143250688705,-0.692549019607843,-0.185104166666667,0.251994750656168,0.90211161387632,0.369665327978581,HIT
5756,1,9,1,56,28069,1,1,1.19022371500614,0,206.0,,0,0,0,1,1,0,6056,1,1,2,hard,-0.0603790498143168,-0.714850241545894,0.299087136929461,-0.331344580777096,-0.121438095238095,0.162851239669421,0.0074509803921568,0.0407291666666666,0.306522309711286,0.660874811463047,0.0448460508701472,HIT
5774,1,9,2,12,31802,1,1,1.80391435700585,0,390.0,3638.0,0,0,0,1,1,0,6075,1,0,3,hard,0.345160711998976,-0.256898550724638,0.74387275242047,0.727668711656442,0.452304761904762,-0.111625344352617,0.150196078431373,0.560416666666667,0.444396325459318,0.205173453996983,0.093855421686747,HIT
5779,1,9,2,17,30431,1,1,1.1672096849943,0,250.0,,0,0,0,1,1,0,6080,1,0,2,hard,-0.0746267127673197,-0.427507246376811,-0.135878284923928,0.255235173824131,-0.193857142857143,-0.0435812672176308,-0.0027450980392156,-0.0426041666666667,-0.35,-0.252850678733032,0.177336010709505,HIT
5834,1,9,3,11,24203,1,1,1.53690129399183,0,203.0,2755.0,0,0,0,1,1,0,6136,1,0,3,hard,0.323877577154565,0.673091787439614,0.148921161825726,0.398220858895706,0.225990476190476,0.281101928374656,-0.078235294117647,0.309166666666667,0.419671916010499,-0.023393665158371,0.233708165997323,HIT
5918,1,9,4,43,36975,1,0,-1.47067753502051,0,5467.0,,0,1,1,0,0,0,6231,1,1,2,hard,0.923558714304008,1.60592270531401,0.751092669432918,1.29995398773006,0.803647619047619,0.187093663911846,0.340392156862745,1.376875,0.362729658792651,1.44188536953243,0.137376171352075,MISS
5954,1,9,5,24,8007,1,1,1.05318438599352,0,5464.0,,0,0,0,1,1,0,6274,1,0,2,hard,0.0490203611217825,-0.16624154589372,-0.465629322268326,0.0291104294478527,0.26892380952381,-0.548250688705234,0.0250980392156863,1.27385416666667,0.194173228346457,0.436681749622926,0.5209906291834,HIT
6028,1,9,6,43,57047,1,0,-1.39137171098264,0,6202.0,,0,1,1,0,0,0,6356,1,0,2,hard,-0.0265296452810859,-0.258685990338164,0.426376210235131,0.375981595092025,-0.18072380952381,-0.26495867768595,-0.0762745098039215,0.0852083333333333,-0.3600656167979,0.0387933634992458,-0.477429718875502,MISS
6102,1,9,8,3,23716,1,0,-1.12772272402071,0,3723.0,,0,1,1,0,0,0,6441,1,0,2,hard,0.285119733640671,-0.375632850241546,0.59463347164592,0.283358895705521,0.232628571428571,0.235247933884297,0.100392156862745,0.0709375,0.37,1.49357466063348,-0.0910977242302543,MISS
6104,1,9,8,5,20634,1,1,1.34959346000687,0,2381.0,2445.0,0,0,0,1,1,0,6443,1,0,3,hard,0.0719221411192213,-0.178570048309179,0.641258644536653,0.000644171779141,0.0781428571428571,-0.162217630853994,0.161372549019608,0.156875,-0.0079921259842519,0.575671191553545,-0.109210174029451,HIT
6157,1,9,9,4,36683,1,1,1.44381293500192,0,1382.0,,0,0,0,1,1,0,6504,1,0,2,hard,-0.0776270969394288,-0.678260869565217,0.333264177040111,-0.0479856850715746,0.0459523809523809,-0.429490358126722,-0.268823529411765,0.501041666666667,-0.364186351706037,0.847043740573152,-0.142155287817938,HIT
6195,1,9,9,44,28596,1,0,-0.772662088013021,0,4096.0,4431.0,0,1,1,0,0,0,6544,1,1,3,hard,0.156090408503009,-0.446908212560386,0.360746887966805,0.451196319018405,0.2136,-0.0051377410468319,0.162352941176471,-0.272604166666667,0.0387139107611548,0.247285067873303,0.19008032128514,MISS
6213,1,9,10,1,66490,1,1,1.74070309600211,0,3024.0,6039.0,0,0,0,1,1,0,6564,1,0,3,hard,0.22217185299014,-0.108888888888889,0.910774550484094,0.463665644171779,-0.149733333333333,-0.32370523415978,0.0437254901960784,0.268958333333333,0.096509186351706,1.19306184012066,-0.292021419009371,HIT
6327,1,9,12,13,11933,1,0,-1.03439396902104,0,5295.0,,0,1,1,0,0,0,6701,1,0,2,hard,0.376066077602766,0.0348502415458936,0.706459197786999,0.699790388548057,0.186238095238095,0.0136088154269972,-0.78235294117647,0.235104166666667,0.188976377952756,1.06668174962293,-0.0244176706827309,MISS
6448,1,10,2,23,53158,1,1,1.10224190000736,0,349.0,,0,0,0,1,1,0,6836,1,0,2,hard,-0.0605327186579587,-0.338734299516908,-0.131784232365145,0.108957055214724,0.127038095238095,-0.603140495867769,0.238235294117647,0.393645833333333,-0.0523097112860892,0.335927601809955,-0.22524765729585,HIT
6470,1,10,2,46,21193,1,1,0.612423735001357,0,153.0,346.0,0,0,0,1,1,0,6859,1,0,3,hard,0.278022794211807,0.624917874396135,0.492143845089903,0.376533742331288,-0.0619047619047618,0.350730027548209,-0.228823529411765,0.000625,0.319396325459318,0.508853695324284,-0.437483266398929,HIT
6496,1,10,3,12,3848,1,1,1.81761573901167,0,345.0,,0,0,0,1,1,0,6887,1,0,2,hard,0.402402356255603,1.00833816425121,0.666514522821577,0.418185071574642,-0.0776571428571428,0.293154269972452,-0.0662745098039215,-0.124270833333333,0.156496062992126,0.844298642533936,0.0051807228915662,HIT
6524,1,10,3,43,62562,1,0,-1.31320871198841,0,2991.0,,0,1,1,0,0,0,6918,1,0,2,hard,0.889089512101421,0.918685990338164,1.32363762102351,1.56783742331288,0.351790476190476,0.527727272727273,-0.149411764705882,-0.409479166666667,0.576272965879265,0.94763197586727,0.261579651941098,MISS
6530,1,10,3,50,62303,1,1,0.907843007007614,0,6677.0,,0,0,0,1,1,0,6925,1,0,2,hard,-0.06,-0.0957777777777778,0.146694329183956,-0.0966359918200409,-0.679457142857143,0.0111845730027548,0.379803921568627,-0.354270833333333,0.0831496062992126,0.673453996983409,-0.102222222222222,HIT
6548,1,10,4,7,11943,1,0,-1.38099838899507,0,6439.0,,0,1,1,0,0,0,6945,1,1,2,hard,-0.0605352798053528,-0.578067632850242,0.568990318118949,0.0599233128834355,-0.457942857142857,-0.224986225895317,0.32921568627451,0.2865625,-0.238477690288714,0.931553544494721,-0.319986613119143,MISS
6559,1,10,4,19,26128,1,0,-0.947606792993611,0,5779.0,,0,1,1,0,0,0,6957,1,0,2,hard,0.864333461390703,0.844618357487923,1.22912863070539,1.30004601226994,0.549304761904762,0.573581267217631,-0.370588235294118,-0.254479166666667,0.586784776902887,1.35039215686275,0.202878179384203,MISS
6590,1,10,4,53,61678,1,0,-1.08032852401084,0,1399.0,,0,1,1,0,0,0,6991,1,0,2,hard,-0.380829811755666,-0.417420289855072,-0.378838174273859,-0.404187116564417,-0.301333333333333,-0.319917355371901,-0.13921568627451,-0.167395833333333,-0.466286089238845,-0.657858220211161,-0.152717536813922,MISS
6610,1,10,5,14,50812,1,1,0.602335527000832,0,901.0,5148.0,0,0,0,1,1,0,7014,1,1,3,hard,0.055121014214368,0.0817584541062801,-0.0452005532503457,0.0991053169734151,-0.0363904761904762,-0.282162534435262,-0.133921568627451,0.3465625,0.17759842519685,0.391719457013575,0.0083400267737617,HIT
6826,1,10,9,9,64868,1,1,1.60317407100229,0,5999.0,,0,0,0,1,1,0,7259,1,0,2,hard,0.219546676911256,-0.213323671497584,0.414163208852006,-0.0656492842535787,-0.0535904761904761,0.522617079889807,-0.113333333333333,0.493229166666667,0.766968503937008,1.17758672699849,0.0459303882195448,HIT
6841,1,10,9,27,27569,1,1,2.48699052300071,0,5588.0,,0,0,0,1,1,0,7277,1,0,2,hard,-0.262920988602894,0.376280193236715,-0.454163208852006,-0.328859918200409,-0.310066666666667,-0.201046831955923,0.104901960784314,0.220729166666667,-0.666023622047244,-0.542081447963801,-0.212971887550201,HIT
7006,1,10,12,18,36946,1,0,-1.60319710899785,0,1915.0,,0,1,1,0,0,0,7456,1,0,2,hard,0.649156101933666,0.501024154589372,0.705048409405256,1.12980572597137,0.500580952380952,0.057534435261708,-0.527843137254902,0.680520833333333,0.41490813648294,1.12422322775264,0.219196787148594,MISS
7011,1,10,12,24,36577,1,0,-1.68361779600673,0,7328.0,,0,1,1,0,0,0,7462,1,0,2,hard,-0.0315533358944807,-1.13249275362319,0.0692392807745505,0.112847648261759,-0.133019047619048,-0.143471074380165,0.100588235294118,0.413125,0.264120734908136,0.741176470588235,0.215957161981258,MISS
7099,1,11,1,57,46461,1,0,-1.67334344802657,0,381.0,,0,1,1,0,0,0,7557,1,0,2,hard,0.297518248175183,-0.258309178743961,0.446030428769018,0.70008691206544,0.0774571428571428,-0.31896694214876,0.336078431372549,0.125520833333333,0.066509186351706,1.36932126696833,0.0821017402945114,MISS
7104,1,11,1,62,66837,1,1,0.815967957023531,0,289.0,,0,0,0,1,1,0,7562,1,0,2,hard,0.91221027020105,0.637400966183575,1.45264177040111,1.24617586912065,0.506580952380952,0.413884297520661,0.318235294117647,1.04489583333333,0.6599343832021,1.79129713423831,0.450508701472557,HIT
7117,1,11,2,13,54079,1,1,1.66333941405173,0,323.0,,0,0,0,1,1,0,7576,1,0,2,hard,0.778786016135229,1.12006763285024,0.767206085753804,1.09530163599182,0.740542857142857,0.557933884297521,-0.0194117647058823,0.8809375,0.573254593175853,1.10064856711916,-0.277898259705489,HIT
7202,1,11,3,39,9723,1,0,-1.38671649800381,0,3307.0,,0,1,1,0,0,0,7664,1,0,2,hard,0.361762069407094,0.276995169082126,0.911023513139696,0.346191206543967,0.0061428571428571,0.0601790633608815,-0.164117647058824,0.775,0.127690288713911,1.25711915535445,0.208232931726908,MISS
7218,1,11,3,56,38979,1,1,1.01802140200743,0,2613.0,,0,0,0,1,1,0,7681,1,0,2,hard,0.0402074529389166,-0.411526570048309,0.242323651452282,-0.237387525562372,-0.0481428571428571,0.247148760330578,0.267058823529412,0.387604166666667,0.226496062992126,0.968929110105581,0.0459705488621151,HIT
7235,1,11,4,13,41567,1,1,1.61416038800962,0,270.0,,0,0,0,1,1,0,7701,1,0,2,hard,0.625147906262005,0.479613526570048,0.853651452282158,0.856968302658487,0.358885714285714,0.181046831955923,-0.130588235294118,0.433958333333333,0.345931758530184,1.40806938159879,0.470602409638554,HIT
7236,1,11,4,14,40576,1,0,-1.60358331503812,0,4067.0,7395.0,0,1,1,0,0,0,7702,1,0,3,hard,0.31357920348316,0.0982512077294686,0.2216459197787,0.336497955010225,0.293695238095238,-0.0858264462809917,0.336666666666667,0.644270833333333,0.453923884514436,0.914555052790347,0.336385542168675,MISS
7243,1,11,4,21,33522,1,0,-1.70234800101025,0,6029.0,,0,1,1,0,0,0,7709,1,0,2,hard,-0.401196055833013,0.0057971014492753,-0.273181189488243,-0.758997955010225,-0.48747619047619,-0.0990633608815426,-0.278235294117647,-0.161458333333333,-0.481561679790026,-0.81920060331825,0.0893038821954484,MISS
7254,1,11,4,33,42852,1,1,1.2946056459914,0,6703.0,6819.0,0,0,0,1,1,0,7721,1,1,3,hard,0.954902036112178,1.34564251207729,0.906984785615491,1.10165644171779,1.05797142857143,0.555826446280992,0.501372549019608,0.745104166666667,0.686811023622047,1.37202111613876,0.279785809906292,HIT
7281,1,11,4,61,15940,1,0,-1.68326224299381,0,4020.0,6428.0,0,1,1,0,0,0,7749,1,0,3,hard,0.536626968882059,-0.0433623188405796,1.03778699861687,0.775577709611452,0.312866666666667,0.0103030303030303,0.545294117647059,0.726354166666667,0.331286089238845,1.67579185520362,0.228955823293173,MISS
7307,1,11,5,26,30602,1,1,1.27126796898665,0,318.0,,0,0,0,1,1,0,7776,1,0,2,hard,0.402205147906262,0.691275362318841,0.733734439834025,0.399473415132924,0.0494285714285714,-0.0326859504132231,0.0272549019607843,-0.3534375,0.15501312335958,1.15453996983409,0.313627844712182,HIT
7336,1,11,5,57,28025,1,1,0.749766691005789,0,6105.0,,0,0,0,1,1,0,7807,1,0,2,hard,0.0898360865667819,-0.491632850241546,0.444356846473029,-0.136053169734151,0.0860761904761904,-0.09099173553719,-0.102745098039216,0.207083333333333,0.390538057742782,0.868868778280543,0.324779116465863,HIT
7347,1,11,6,7,11838,1,1,1.58863222901709,0,6428.0,,0,0,0,1,1,0,7820,1,0,2,hard,0.305565373287233,-0.681487922705314,0.995698478561549,0.569228016359918,0.0067809523809523,-0.0657851239669421,0.50921568627451,-0.598229166666667,0.0870603674540682,1.52482654600302,0.338688085676037,HIT
7353,1,11,6,14,67803,1,1,1.10276130598504,0,5239.0,,0,0,0,1,1,0,7827,1,0,2,hard,0.341044948136765,-0.210251207729469,0.0094052558782849,0.484197341513292,0.289704761904762,0.544862258953168,0.302549019607843,0.9884375,0.639750656167979,0.924358974358974,0.0221151271753681,HIT
7373,1,11,6,34,57436,1,1,0.737199597002473,0,2716.0,5676.0,0,0,0,1,1,0,7847,1,0,3,hard,0.0115840696632091,-0.156830917874396,0.118934993084371,0.0948364008179959,-0.161704761904762,-0.110936639118457,-0.056078431372549,-0.2559375,-0.0523097112860892,0.222805429864253,0.20239625167336,HIT
7422,1,11,7,24,12309,1,1,1.33008546603378,0,5536.0,,0,0,0,2,1,0,7899,1,0,2,hard,-0.287482392111666,-0.775333333333333,-0.536334716459198,-0.429187116564417,0.109085714285714,0.341060606060606,-0.22921568627451,0.130520833333333,-0.0711154855643044,-0.5373604826546,-0.224564926372155,HIT
7432,1,11,7,34,11618,1,0,-1.65361953701358,0,6483.0,,0,1,1,0,0,0,7909,1,0,2,hard,-0.158706620566014,-0.246231884057971,0.149640387275242,-0.351247443762781,-0.156152380952381,-0.255,-0.224901960784314,0.0882291666666666,-0.238136482939632,0.447843137254902,-0.226251673360107,MISS
7437,1,11,7,39,3952,1,1,1.77110409399029,0,3237.0,,0,0,0,1,1,0,7914,1,0,2,hard,0.326758867972852,1.07328502415459,0.160788381742739,0.374739263803681,0.235504761904762,0.237245179063361,-0.353333333333333,0.855520833333333,-0.0553412073490813,0.0230165912518853,0.180522088353414,HIT
7467,1,11,8,10,27581,1,0,-0.88840152398916,0,2423.0,,0,1,1,0,0,0,7948,1,0,2,hard,-0.239189396849789,-1.03166183574879,0.247427385892116,-0.321518404907975,-0.277885714285714,-0.0356198347107438,0.148039215686275,0.0935416666666666,-0.158188976377953,0.517164404223228,-0.363172690763052,MISS
7506,1,11,8,52,3158,1,1,1.01096278295154,0,6864.0,,0,0,0,1,1,0,7990,1,0,2,hard,-0.0113702138558073,0.876502415458937,-0.149861687413555,0.179872188139059,-0.4782,-0.0340495867768594,0.0625490196078431,0.6303125,-0.39998687664042,-0.311191553544495,-0.355033467202142,HIT
7614,1,11,10,43,4250,1,0,-1.18784275802318,0,3140.0,,0,1,1,0,0,0,8106,1,0,2,hard,0.400578819311051,0.329507246376812,1.00006915629322,0.543680981595092,0.582571428571429,-0.425564738292011,-0.61921568627451,0.7528125,0.0284645669291338,1.01441930618401,-0.0496519410977242,MISS
7632,1,11,10,62,34127,1,1,1.32637925696326,0,1211.0,5290.0,0,0,0,1,1,0,8125,1,0,3,hard,0.882693046484825,1.37964251207729,0.554246196403873,0.900823108384458,0.789180952380952,0.881019283746556,0.503921568627451,0.881770833333333,1.11522309711286,0.628778280542986,0.611780455153949,HIT
7636,1,11,11,5,43951,1,1,1.07334195502335,0,799.0,,0,0,0,1,1,0,8130,1,0,2,hard,-0.0981803047765399,-0.153468599033816,0.385615491009682,-0.362060327198364,-0.127733333333333,-0.356253443526171,-0.566862745098039,-0.4234375,-0.178005249343832,0.574600301659125,0.0515930388219545,HIT
7676,1,11,11,49,48618,1,0,-1.60317703697365,0,8144.0,,0,1,1,0,0,0,8174,1,0,2,hard,0.820983480599308,1.07772946859903,1.13928077455048,0.822678936605317,0.777647619047619,0.214366391184573,0.526862745098039,0.631041666666667,0.647965879265092,1.62203619909502,0.313226238286479,MISS
7737,1,11,12,59,23037,1,0,-1.44501904700883,0,5170.0,,0,1,1,0,0,0,8247,1,0,2,hard,0.120507107184018,-0.687555555555555,0.376320885200553,-0.086743353783231,-0.0259714285714285,-0.0178787878787878,1.08509803921569,1.02427083333333,0.735236220472441,0.642835595776772,0.602918340026774,MISS
7744,1,12,1,5,12309,1,1,0.970577722000598,0,355.0,5892.0,0,0,0,1,1,0,8255,1,0,3,hard,0.118295556409271,-0.276821256038647,0.585255878284924,0.595899795501023,-0.0907047619047618,-0.269435261707989,0.337843137254902,-0.9721875,0.0405774278215223,-0.104072398190045,0.0355957161981258,HIT
7746,1,12,1,7,3857,1,1,1.26851931700003,0,119.0,,0,0,0,1,1,0,8257,1,0,2,hard,0.611435523114355,0.712289855072464,0.86432918395574,1.17740286298569,0.285895238095238,-0.0214049586776859,0.583137254901961,-0.27,0.354829396325459,0.806787330316742,0.0211780455153949,HIT
7757,1,12,1,19,4250,1,1,1.94644825599971,0,162.0,3303.0,0,0,0,1,1,0,8269,1,0,3,hard,0.21604302727622,0.113942028985507,0.365712309820194,0.283875255623722,-0.284628571428571,0.574903581267218,-0.513725490196078,0.825520833333333,0.162073490813648,0.905580693815988,-0.195435073627845,HIT
7769,1,12,1,34,22880,1,0,-1.42270011400251,0,5941.0,,0,1,1,0,0,0,8284,1,1,2,hard,0.219061339480087,-0.268657004830918,0.309170124481328,0.220945807770961,-0.0288666666666666,0.0912947658402204,0.414117647058823,0.341354166666667,0.465249343832021,1.61058823529412,-0.239879518072289,MISS
7793,1,12,1,59,28350,1,1,0.82706480500201,0,230.0,424.0,0,0,0,1,1,0,8309,1,1,3,hard,0.619813036240236,0.26568115942029,0.613914246196404,0.768348670756646,0.632142857142857,0.223264462809917,0.0876470588235294,0.855729166666667,0.788346456692913,1.26012066365008,0.361111111111111,HIT
7810,1,12,2,17,42172,1,1,2.15695344800042,0,8097.0,,0,0,0,1,1,0,8330,1,0,2,hard,0.241626328595211,-0.657130434782609,0.792752420470263,0.439739263803681,0.511980952380952,-0.226005509641873,-0.700980392156863,-0.804270833333333,0.42245406824147,0.299140271493213,0.472449799196787,HIT
7843,1,12,2,55,57554,1,1,1.86867259599967,0,164.0,,0,0,0,1,1,0,8368,1,1,2,hard,0.0784850813164297,-0.303391304347826,0.300940525587829,0.040163599182004,-0.0263238095238095,0.233636363636364,-0.052156862745098,0.2578125,-0.0019685039370078,0.668205128205128,0.0336947791164658,HIT
7844,1,12,2,56,66217,1,1,0.866464415998052,0,3170.0,,0,0,0,1,1,0,8369,1,0,2,hard,0.0349903956972723,-0.43880193236715,0.234854771784232,0.339151329243354,0.230190476190476,0.148856749311295,0.201764705882353,0.4021875,-0.176614173228346,-0.0301508295625942,-0.468380187416332,HIT
7894,1,12,3,51,19201,1,1,0.71738135400301,0,259.0,,0,0,0,1,1,0,8426,1,0,2,hard,0.0540939941093609,-0.15183574879227,0.34253112033195,0.01030163599182,-0.106361904761905,0.120316804407714,0.125490196078431,0.673645833333333,-0.0308792650918635,1.08671191553544,-0.578219544846051,HIT
7931,1,12,4,29,71230,1,1,0.722425803000078,0,406.0,,0,0,0,1,1,0,8467,1,0,2,hard,0.474735561531566,0.430347826086956,0.718921161825726,1.13008691206544,0.339190476190476,0.410922865013774,-0.235294117647059,-0.4628125,-0.213110236220472,-0.286742081447964,0.38289156626506,HIT
8043,1,12,6,27,57839,1,1,0.728708729002392,0,7144.0,,0,0,0,1,1,0,8590,1,0,2,hard,-0.167026507875528,-0.873497584541063,-0.0407607192254495,0.132377300613497,-0.11747619047619,0.0301515151515151,-0.457647058823529,-1.23947916666667,-0.359632545931758,-0.580150829562594,0.365153949129853,HIT
8045,1,12,6,29,3158,1,1,1.29118566599936,0,601.0,7466.0,0,0,0,1,1,0,8592,1,0,3,hard,-0.44287104622871,-0.564038647342995,-0.493416320885201,-0.266354805725971,-0.495180952380952,-0.252203856749311,0.29,-1.27895833333333,-0.485971128608924,-1.08737556561086,-0.126639892904953,HIT
8063,1,12,6,48,33132,1,1,1.31659687900174,0,1740.0,,0,0,0,1,1,0,8611,1,0,2,hard,0.54692278140607,0.103574879227053,0.853222683264177,0.709100204498978,0.574038095238095,0.338347107438016,0.342352941176471,0.800833333333333,0.289580052493438,1.35426847662142,0.131967871485944,HIT
8090,1,12,7,13,19200,1,1,0.81330753599832,0,7067.0,,0,0,0,1,1,0,8638,1,0,2,hard,0.443577922909463,0.835739130434783,0.630816044260028,0.591993865030675,0.382847619047619,-0.0232093663911845,-0.0072549019607843,0.5446875,-0.0309973753280839,1.32686274509804,-0.412663989290495,HIT
8099,1,12,7,22,13721,1,1,1.71419918399988,0,594.0,,0,0,0,1,1,0,8647,1,0,2,hard,0.520107568190549,0.456376811594203,0.671922544951591,0.906641104294478,-0.0503047619047618,0.261115702479339,-0.134509803921569,-0.310520833333333,0.0521522309711285,0.934600301659125,0.763748326639893,HIT
8211,1,12,9,20,10108,1,0,-1.6244050589994,0,5289.0,5800.0,0,1,1,0,0,0,8770,1,0,3,hard,0.502958125240108,0.228859903381642,0.949253112033195,0.666344580777096,0.1696,0.643856749311295,0.245882352941176,-0.7915625,0.632257217847769,0.77708898944193,0.16330655957162,MISS
8317,1,12,11,21,38830,1,1,1.36021499599883,0,5306.0,,0,0,0,1,1,0,8896,1,0,2,hard,0.338778332693047,-0.232048309178744,0.808865836791148,0.446998977505113,-0.108609523809524,0.255922865013774,0.443529411764706,0.131875,0.429343832020997,1.32539969834087,0.152088353413655,HIT
8365,1,12,12,16,34239,1,1,1.41350084299847,0,8319.0,,0,0,0,1,1,0,8954,1,0,2,hard,0.376657702650788,-0.02287922705314,0.480387275242047,0.772735173824131,0.29932380952381,0.278650137741047,0.170588235294118,0.8646875,0.206666666666667,0.37105580693816,0.126398929049531,HIT
8389,1,12,12,47,32626,1,1,1.46246631600297,0,8893.0,8939.0,0,0,0,1,1,0,8985,1,0,3,hard,0.168905109489051,0.206492753623188,-0.0668464730290456,0.449284253578732,-0.0536952380952381,-0.0437603305785123,-0.402941176470588,0.224270833333333,0.177979002624672,0.463333333333333,-0.108232931726908,HIT
8407,1,13,1,10,26599,1,1,1.07503412599908,0,8649.0,,0,0,0,1,1,0,9010,1,0,2,hard,0.0132693046484825,-0.135323671497585,0.11030428769018,-0.316124744376278,0.149438095238095,0.270234159779614,0.062156862745098,0.240104166666667,0.0947375328083989,0.366726998491704,0.117295850066934,HIT
8512,1,13,3,5,47601,1,1,0.768482218001736,0,1227.0,,0,0,0,1,1,0,9130,1,0,2,hard,0.210229222691766,-1.18749758454106,0.592116182572614,0.674688139059305,0.0673904761904762,-0.0882920110192837,-0.295294117647059,0.6334375,0.376115485564304,1.24031674208145,-0.051392235609103,HIT
8529,1,13,3,23,34239,1,1,0.88902621800662,0,193.0,8513.0,0,0,0,1,1,0,9148,1,0,3,hard,0.426584709950058,0.559227053140097,0.58222683264177,0.485736196319018,0.216466666666667,0.126859504132231,0.0574509803921568,0.825625,0.505682414698163,0.61132730015083,0.253186077643909,HIT
8588,1,13,4,26,6802,1,1,1.54707154101925,0,428.0,,0,0,0,1,1,0,9214,1,1,2,hard,0.604776539889871,0.0833719806763284,1.12213001383126,0.844054192229039,0.292609523809524,0.284228650137741,0.25921568627451,0.557083333333333,0.318228346456693,1.74710407239819,0.258406961178046,HIT
8602,1,13,4,43,35753,1,0,-1.6902799840027,0,339.0,,0,1,1,0,0,0,9231,1,0,2,hard,0.0045332308874375,-0.456550724637681,0.484135546334717,0.204780163599182,0.0890095238095237,-0.232658402203857,0.307843137254902,-0.5228125,-0.204238845144357,0.0550377073906485,-0.0181659973226238,MISS
8610,1,13,4,51,70096,1,1,0.990456771978643,0,270.0,1225.0,0,0,0,1,1,0,9239,1,0,3,hard,-0.316041746702523,-1.15792270531401,0.429211618257261,0.101114519427403,-0.55452380952381,-0.778099173553719,0.324509803921569,-0.0159374999999999,-0.751601049868766,0.0195625942684766,-0.114779116465863,HIT
8701,1,13,6,32,36979,1,0,-1.10719242598861,0,6086.0,,0,1,1,0,0,0,9345,1,1,2,hard,-0.0434998079139454,0.539323671497585,0.444495159059474,0.0931288343558282,-0.31752380952381,-0.18870523415978,-0.389411764705882,-0.6834375,-0.428950131233596,-0.390844645550528,-0.347469879518072,MISS
8802,1,13,8,18,45844,1,0,-2.50564550800482,0,2356.0,,0,1,1,0,0,0,9456,1,0,2,hard,0.355455243949289,0.595294685990338,0.192033195020747,0.570265848670757,0.423533333333333,-0.0859090909090908,0.542941176470588,-0.1528125,0.108333333333333,0.112926093514329,0.471967871485944,MISS
8803,1,13,8,20,52555,1,1,1.63716650099377,0,1508.0,,0,0,0,1,1,0,9458,1,0,2,hard,0.172548341657062,-0.172376811594203,0.401327800829876,0.703865030674847,0.0565047619047619,0.141928374655647,-0.705882352941177,-0.730104166666667,-0.444698162729659,0.105550527903469,0.0957429718875501,HIT
8825,1,13,8,44,55934,1,1,0.905827580019832,0,1331.0,,0,0,0,1,1,0,9482,1,0,2,hard,0.11136893328211,-1.28337198067633,0.368381742738589,0.438006134969325,-0.0168190476190476,0.639669421487603,-0.0011764705882353,0.207395833333333,0.329750656167979,0.697752639517345,-0.141338688085676,HIT
8852,1,13,9,16,26352,1,0,-1.44564777699998,0,8829.0,,0,1,1,0,0,0,9516,1,0,2,hard,-0.189547957484953,-1.33313043478261,0.14774550484094,0.206155419222904,-0.431961904761905,0.0957162534435261,-0.341372549019608,0.115208333333333,-0.155787401574803,-0.0608295625942684,-0.0816465863453815,MISS
8865,1,13,9,33,16703,1,1,1.25766443301109,0,6749.0,8750.0,0,0,0,1,1,0,9533,1,0,3,hard,0.522850557049558,-0.121420289855072,0.760082987551867,0.57590490797546,0.635657142857143,0.630371900826446,0.0750980392156863,-0.171041666666667,0.558490813648294,1.44455505279035,0.0492503346720214,HIT
8942,1,13,10,58,50735,1,1,1.23352337500546,0,5729.0,5818.0,0,0,0,1,1,0,9621,1,0,3,hard,0.141467537456781,0.472676328502415,0.0324481327800829,0.176584867075665,0.0158,-0.259683195592286,0.0856862745098039,0.144375,0.0481364829396325,0.815686274509804,-0.237121820615797,HIT
9025,1,13,12,28,2951,1,0,-1.31094153999584,0,7099.0,,0,1,1,0,0,0,9716,1,0,2,hard,0.487969010116532,0.401874396135266,0.795836791147995,0.574539877300614,0.246790476190476,0.172727272727273,0.290196078431373,1.0271875,0.48242782152231,1.50357466063348,-0.223560910307898,MISS
9070,1,14,1,19,49956,1,1,1.45903548999922,0,32.0,325.0,0,0,0,1,1,0,9769,1,0,3,hard,0.570427711614803,0.896057971014493,0.64058091286307,0.632346625766871,0.514561904761905,0.195812672176308,-0.230588235294118,0.0377083333333333,0.287834645669291,1.45582202111614,-0.0425836680053547,HIT
9113,1,14,2,2,65254,1,1,0.928247542997269,0,374.0,716.0,0,0,0,1,1,0,9815,1,1,3,hard,0.367469586374696,0.467449275362319,0.515656984785616,0.103006134969325,0.0371714285714284,0.904366391184573,0.233333333333333,0.354479166666667,0.300485564304462,1.44657616892911,-0.158125836680054,HIT
9147,1,14,2,38,20443,1,0,-0.868713367999589,0,2625.0,,0,1,1,0,0,0,9851,1,0,2,hard,0.179045972595723,0.425333333333333,0.125491009681881,0.0688701431492842,0.0006095238095238,-0.0595179063360881,0.284705882352941,0.6115625,0.170853018372703,0.698099547511312,0.145676037483266,MISS
9180,1,14,3,16,31029,1,1,1.87793143800081,0,5343.0,,0,0,0,1,1,0,9891,1,0,2,hard,0.48099116404149,0.539893719806763,0.765615491009682,0.75200408997955,0.397980952380952,-0.439256198347107,0.0278431372549019,0.9384375,0.38992125984252,0.923966817496229,0.097202141900937,HIT
9211,1,14,3,54,48840,1,0,-1.48904919100096,0,2592.0,,0,1,1,0,0,0,9929,1,0,2,hard,0.209716993212959,0.181536231884058,0.319834024896266,0.0266155419222903,0.2736,-0.154793388429752,0.0068627450980392,0.8646875,0.0649999999999999,1.29737556561086,-0.001954484605087,MISS
9237,1,14,4,19,53512,1,1,1.68258046199844,0,7500.0,,0,0,0,1,1,0,9957,1,0,2,hard,0.215046740939941,0.365980676328503,0.219986168741355,0.416758691206544,0.424247619047619,-0.0260055096418733,-0.247647058823529,0.106770833333333,-0.213451443569554,0.259155354449472,-0.143360107095047,HIT
9246,1,14,4,28,8844,1,0,-1.55351851999876,0,475.0,,0,1,1,0,0,0,9966,1,0,2,hard,0.53833909591497,-0.180657004830918,1.06145228215768,1.1369836400818,0.164380952380952,-0.161997245179063,0.485098039215686,0.85125,0.365354330708661,1.01149321266968,0.386921017402945,MISS
9272,1,14,4,61,62007,1,1,1.93470299299952,0,2353.0,,0,0,0,1,1,0,9999,1,0,2,hard,0.319823280829812,-0.73472463768116,0.744965421853389,0.37890081799591,-0.110609523809524,0.391460055096419,0.524509803921569,1.04270833333333,0.843057742782152,1.57393665158371,-0.0035341365461847,HIT
9353,1,14,6,23,13313,1,1,1.73427723799978,0,1580.0,,0,0,0,1,1,0,10086,1,0,2,hard,0.531125624279677,0.0970531400966183,0.641576763485477,0.465843558282209,0.887457142857143,0.761928374655647,-0.144705882352941,0.326458333333333,0.33503937007874,1.11800904977376,0.222985274431058,HIT
9359,1,14,6,30,49467,1,1,1.10163178999937,0,357.0,,0,0,0,1,1,0,10093,1,0,2,hard,0.0558560635164553,-0.219990338164251,0.538298755186722,0.435158486707566,-0.765704761904762,0.10603305785124,-0.152745098039216,-0.460520833333333,-0.0209055118110236,0.224283559577677,0.0933734939759036,HIT
9369,1,14,6,42,13315,1,0,-1.53986229400107,0,457.0,,0,1,1,0,0,0,10105,1,0,2,hard,-0.0243296196696119,-0.427391304347826,-0.208990318118949,0.186625766871166,0.240971428571429,0.0893526170798898,0.0770588235294117,0.269479166666667,-0.0691076115485564,-0.25974358974359,-0.112985274431058,MISS
9395,1,14,7,12,48423,1,1,1.34055402399827,0,8734.0,8763.0,0,0,0,1,1,0,10137,1,0,3,hard,0.563821231911896,0.367072463768116,0.824979253112033,0.691237218813906,0.319190476190476,0.496666666666667,-0.14843137254902,1.30291666666667,0.594107611548556,1.34075414781297,-0.107670682730924,HIT
9441,1,14,8,3,58405,1,1,1.51536254799794,0,4442.0,,0,0,0,1,1,0,10191,1,0,2,hard,0.187310795236266,0.710975845410628,0.453001383125865,-0.0621063394683026,-0.0443142857142856,-0.449077134986226,0.620392156862745,0.918541666666667,0.157808398950131,1.10158371040724,-0.103145917001339,HIT
9447,1,14,8,10,27973,1,0,-1.4853731430012,0,581.0,,0,1,1,0,0,0,10198,1,0,2,hard,0.411529004994237,0.82119806763285,0.298907330567082,0.685777096114519,0.236171428571429,0.240509641873278,0.177254901960784,-0.1325,0.154685039370079,0.783785822021116,-0.334979919678715,MISS
9456,1,14,8,19,24215,1,1,0.972138829001778,0,3136.0,,0,0,0,1,1,0,10207,1,0,2,hard,0.191267767960046,-0.384376811594203,0.507358229598893,0.630291411042945,-0.0397428571428571,0.558677685950413,-0.92843137254902,-0.8175,0.149225721784777,0.0470889894419306,-0.122088353413655,HIT
9460,1,14,8,23,22880,1,1,1.2751807939967,0,1926.0,7868.0,0,0,0,1,1,0,10211,1,1,3,hard,0.167820463567678,0.0035555555555555,0.327994467496542,0.231533742331288,0.226228571428571,0.17064738292011,-0.328627450980392,-0.0354166666666667,-0.229238845144357,0.691523378582202,-0.011057563587684,HIT
9479,1,14,8,44,17375,1,1,1.07958504400085,0,1408.0,,0,0,0,1,1,0,10232,1,1,2,hard,0.0011089768216161,-0.73519806763285,0.018686030428769,-0.166308793456033,0.182638095238095,0.471611570247934,0.141372549019608,0.118229166666667,0.165564304461942,0.41814479638009,0.167697456492637,HIT
9484,1,14,8,50,39403,1,0,-0.903313254999375,0,2423.0,,0,1,1,0,0,0,10238,1,0,2,hard,0.183544627993341,0.0974492753623188,0.65195020746888,0.138389570552147,0.0803809523809523,0.0814600550964187,-0.201960784313725,0.513125,0.0566010498687663,0.173891402714932,0.333962516733601,MISS
9487,1,14,8,55,14122,1,0,-1.60328804800156,0,9575.0,,0,1,1,0,0,0,10243,1,0,2,hard,0.227910103726469,0.0824251207729469,0.514702627939143,0.549989775051125,0.0327809523809523,0.0337465564738292,-0.238823529411765,0.519270833333333,-0.111338582677165,1.04819004524887,-0.616024096385542,MISS
9491,1,14,8,59,16253,1,0,-0.959118519000185,0,1617.0,1760.0,0,1,1,0,0,0,10247,1,0,3,hard,0.49833909591497,0.18095652173913,1.06081604426003,0.921973415132924,-0.0625904761904761,0.376143250688705,0.0690196078431372,-0.2078125,0.248569553805774,1.52131221719457,-0.341472556894244,MISS
9530,1,14,9,41,36979,1,1,1.05640217900145,0,945.0,7032.0,0,0,0,1,1,0,10291,1,1,3,hard,0.397330003841721,0.559855072463768,1.02149377593361,0.939775051124744,-0.224114285714286,-0.0810330578512396,-0.397843137254902,0.124791666666667,0.0707742782152231,0.30499245852187,-0.0095314591700133,HIT
9566,1,14,10,22,17777,1,1,0.929030339000747,0,2046.0,,0,0,0,1,1,0,10335,1,0,2,hard,-0.0901165322064284,0.312154589371981,-0.187939142461964,-0.644953987730061,-0.0507428571428571,0.229752066115703,-0.0972549019607843,-0.146458333333333,0.0464173228346456,1.12648567119155,-0.677536813922356,HIT
9585,1,14,10,41,54258,1,1,1.04478413099787,0,6259.0,,0,0,0,1,1,0,10354,1,1,2,hard,0.0135676783198873,-0.123855072463768,-0.124370677731674,0.170807770961145,-0.0151714285714286,0.0487465564738292,0.526078431372549,-0.0898958333333333,0.107322834645669,0.0481749622926093,-0.216091030789826,HIT
9695,1,14,12,39,11797,1,0,-1.37336250700173,0,3286.0,,0,1,1,0,0,0,10477,1,1,2,hard,0.0867076450249712,0.0033333333333333,0.439986168741355,0.442044989775051,-0.389885714285714,-0.0306336088154269,-0.0050980392156862,-0.0514583333333333,-0.247742782152231,0.0508295625942684,0.110843373493976,MISS
9726,1,15,1,13,38247,1,1,1.9339490160055,0,262.0,,0,0,0,1,1,0,10513,1,0,2,hard,-0.187209629914202,-0.194492753623188,0.141230982019364,0.0669427402862986,-0.634,-0.402134986225895,-0.0713725490196078,-1.0003125,-0.382020997375328,0.0133333333333333,-0.206278447121821,HIT
9728,1,15,1,15,39290,1,0,-1.81133463699371,0,294.0,326.0,0,1,1,0,0,0,10515,1,0,3,hard,0.260521193494686,-0.271352657004831,0.632517289073306,0.262949897750511,0.0218095238095237,0.265137741046832,0.727647058823529,0.30125,0.662309711286089,0.749064856711916,0.0815127175368139,MISS
9756,1,15,1,50,10047,1,0,-1.28411562500696,0,93.0,,0,1,2,0,0,0,10550,1,0,2,hard,-0.168826994493533,-0.853420289855073,0.0265560165975103,-0.0544785276073619,-0.161085714285714,-0.116046831955923,0.0566666666666666,0.41375,-0.542769028871391,0.515369532428356,-0.0870682730923694,MISS
9762,1,15,1,57,45633,1,0,-1.69186626200099,0,5078.0,,0,1,1,0,0,0,10557,1,0,2,hard,0.679017799974388,0.756212560386473,0.930124481327801,0.812765848670757,0.790847619047619,0.294104683195592,-0.0284313725490196,0.636458333333333,0.432099737532808,0.976003016591252,0.237764390896921,MISS
9768,1,15,1,63,65446,1,1,1.10326323499612,0,108.0,,0,0,0,1,1,0,10563,1,0,2,hard,0.189504417979255,0.407874396135266,0.450055325034578,-0.0090337423312883,0.0981523809523809,-0.0420247933884297,0.544705882352941,0.247916666666667,0.186194225721785,0.578989441930618,0.133989290495314,HIT
9769,1,15,2,1,66581,1,1,2.33134661598888,0,3744.0,,0,0,0,1,1,0,10564,1,0,2,hard,0.357684722755795,0.352338164251208,0.640954356846473,0.36381390593047,0.466019047619047,-0.0420523415977961,0.618823529411765,0.201875,0.0793438320209973,1.03779788838612,-0.0064123159303882,HIT
9889,1,15,4,3,71895,1,1,0.962379630989744,0,201.0,,0,0,0,1,1,0,10691,1,0,2,hard,0.171818414649763,0.0197874396135265,0.744467496542185,0.350092024539877,-0.0021142857142856,-0.244173553719008,-0.0964705882352941,-0.768125,0.0184383202099737,0.365957767722474,0.133453815261044,HIT
10013,1,15,6,15,4059,1,1,0.850496076993295,0,527.0,,0,0,0,1,1,0,10828,1,0,2,hard,0.384474324497375,-0.291217391304348,0.69612724757953,0.359969325153374,0.615571428571429,0.232451790633609,-0.123333333333333,0.946770833333333,0.423897637795276,1.02155354449472,0.262864792503347,HIT
10018,1,15,6,20,39403,1,1,1.10308559000259,0,594.0,3018.0,0,0,0,1,1,0,10833,1,0,3,hard,0.382115507747471,0.238908212560386,0.973347164591978,0.299580777096115,-0.0908571428571428,0.433787878787879,0.270392156862745,-0.1803125,0.725997375328084,0.351945701357466,0.594912985274431,HIT
10022,1,15,6,24,66331,1,1,2.00613512599375,0,4250.0,4377.0,0,0,0,1,1,0,10837,1,0,3,hard,0.23665642207709,-0.0014299516908212,0.925795297372061,0.524539877300613,0.0597047619047618,-0.0101652892561983,0.366862745098039,0.138333333333333,-0.0149999999999999,0.389396681749623,-0.240776439089692,HIT
10029,1,15,6,31,48261,1,1,1.33806666701275,0,2521.0,6371.0,0,0,0,1,1,0,10844,1,0,3,hard,1.02545780509668,2.0243768115942,0.721715076071923,0.39851226993865,1.2862,0.846955922865014,0.27,0.6740625,1.60937007874016,1.62978883861237,0.348741633199464,HIT
10038,1,15,6,40,29382,1,1,0.780476855987217,0,465.0,,0,0,0,1,1,0,10853,1,0,2,hard,0.645730567294148,1.13600966183575,0.302724757952974,0.220541922290388,1.03229523809524,0.53801652892562,0.433725490196078,2.0765625,1.34950131233596,0.532398190045249,0.186358768406961,HIT
10050,1,15,6,52,29838,1,1,0.648348495000391,0,10132.0,,0,0,0,1,1,0,10865,1,0,2,hard,0.0809309770777308,-0.060695652173913,-0.0576348547717842,-0.288742331288343,0.251047619047619,-0.049366391184573,0.247058823529412,0.581875,0.610551181102362,0.322654600301659,0.436251673360107,HIT
10071,1,15,7,12,57651,1,1,1.10386072199617,0,2879.0,,0,0,0,1,1,0,10887,1,0,2,hard,0.255771545652452,-0.546579710144928,0.328533886583679,0.370894683026585,0.242095238095238,0.173195592286501,-0.136470588235294,-0.207604166666667,0.554593175853018,0.743303167420814,0.443868808567604,HIT
10101,1,15,7,45,7040,1,1,1.91382683999836,0,872.0,895.0,0,0,0,1,1,0,10920,1,0,3,hard,0.503752080932258,0.278966183574879,1.31887966804979,0.683021472392638,0.435409523809524,-0.172465564738292,-0.0176470588235294,0.386875,0.0238845144356955,1.43594268476621,0.0228781793842034,HIT
10155,1,15,8,45,35799,1,1,1.77074307999283,0,2292.0,2522.0,0,0,0,1,1,0,10983,1,0,3,hard,0.0650070431553336,0.307217391304348,0.355297372060857,-0.0775306748466257,0.24787619047619,-0.205482093663912,0.691960784313726,0.0755208333333333,-0.229173228346457,0.272051282051282,-0.100307898259705,HIT
10159,1,15,8,49,60095,1,1,1.21778250399802,0,3090.0,,0,0,0,1,1,0,10987,1,0,2,hard,0.112275579459598,-0.0762898550724638,0.563208852005533,-0.412469325153374,0.513209523809524,-0.131046831955923,0.518039215686275,0.299166666666667,0.267112860892388,1.18010558069382,-0.173373493975904,HIT
10236,1,15,10,11,35987,1,1,0.639485315987258,0,1310.0,,0,0,0,1,1,0,11074,1,1,2,hard,0.152192342169292,0.188550724637681,0.353167358229599,0.198374233128834,0.258066666666667,-0.0650688705234159,-0.0388235294117647,-0.311666666666667,-0.473412073490814,0.96420814479638,-0.161178045515395,HIT
10254,1,15,10,30,72016,1,1,1.56502480800555,0,6716.0,,0,0,0,1,1,0,11093,1,1,2,hard,0.254741964400051,0.325004830917874,0.376500691562932,0.381155419222904,0.246866666666667,-0.0326033057851239,-0.0990196078431372,0.761875,-0.0427034120734908,0.315460030165913,0.207376171352075,HIT
10275,1,15,10,55,12635,1,1,0.946661319991108,0,5192.0,,0,0,0,1,1,0,11118,1,0,2,hard,0.372968369829684,0.997420289855072,0.760567081604426,0.612351738241309,0.411209523809524,-0.0307575757575757,-0.163333333333333,0.0191666666666666,-0.253464566929134,0.322292609351433,-0.3895046854083,HIT
10300,1,15,11,21,20651,1,1,0.702154145998065,0,1482.0,,0,0,0,1,1,0,11146,1,0,2,hard,-0.0854795748495325,-0.499101449275362,-0.0782019363762102,-0.146094069529652,-0.192971428571428,0.243567493112948,0.411764705882353,-0.2,0.16249343832021,-0.0942383107088989,0.206171352074967,HIT
10326,1,15,11,48,19934,1,1,1.25463800800208,0,7400.0,7570.0,0,0,0,1,1,0,11173,1,0,3,hard,-0.0035804840568574,-0.397236714975845,0.18954356846473,-0.431027607361963,0.407142857142857,0.0319008264462809,0.199411764705882,0.291458333333333,-0.153438320209974,1.08552036199095,-0.0031593038821954,HIT
10397,1,16,1,3,7419,1,1,1.54887986200629,0,168.0,,0,0,0,1,1,0,11253,1,0,2,hard,0.333058009988475,-0.279613526570048,0.784771784232365,0.539125766871166,0.365019047619048,-0.269297520661157,0.126078431372549,1.0034375,0.0006430446194225,1.46428355957768,0.0087014725568942,HIT
10416,1,16,1,23,28287,1,0,-1.08680200297385,0,7214.0,,0,1,1,0,0,0,11273,1,0,2,hard,0.460533999231656,0.198599033816425,0.700553250345782,0.700976482617587,0.642914285714286,0.114283746556474,0.266274509803922,0.498229166666667,0.217362204724409,0.718235294117647,0.0694645247657295,MISS
10443,1,16,1,53,18797,1,0,-1.01066514500417,0,10040.0,,0,1,1,0,0,0,11303,1,0,2,hard,0.033390959149699,-0.519304347826087,0.207358229598893,-0.380838445807771,0.038247619047619,0.436831955922865,0.330980392156863,0.822916666666667,0.545892388451444,0.814117647058824,-0.0209906291834002,MISS
10449,1,16,1,60,3490,1,1,0.90966548101278,0,4326.0,4327.0,0,0,0,1,1,0,11310,1,0,3,hard,0.381365091561019,0.412753623188406,0.206735822959889,0.645158486707566,0.259295238095238,0.345578512396694,0.25078431372549,0.310416666666667,0.243451443569554,0.5163197586727,0.0614591700133868,HIT
10453,1,16,2,1,66977,1,0,-1.61810921004508,0,3998.0,,0,1,1,0,0,0,11314,1,1,2,hard,0.0011755666538609,-0.488376811594203,0.358533886583679,0.0080163599182003,-0.102095238095238,-0.299628099173554,-0.30156862745098,-0.0502083333333333,0.0374803149606299,0.965490196078431,-0.112449799196787,MISS
10461,1,16,2,9,19691,1,0,-0.667997176002245,0,1945.0,,0,1,1,0,0,0,11322,1,0,2,hard,0.190825970034575,0.193536231884058,0.332807745504841,0.0890644171779141,0.617990476190476,-0.169724517906336,0.519019607843137,0.615520833333333,0.0934120734908136,-0.0121266968325792,0.268607764390897,MISS
10486,1,16,2,38,40841,1,1,1.92638418299612,0,7975.0,10436.0,0,0,0,1,1,0,11351,1,0,3,hard,0.405210654373159,0.7916038647343,0.127565698478562,0.557673824130879,0.557895238095238,0.0301239669421487,-0.194117647058824,-0.370416666666667,-0.11741469816273,1.07846153846154,-0.0345515394912985,HIT
10491,1,16,2,44,5603,1,1,1.88848253997276,0,10557.0,11123.0,0,0,0,1,1,0,11357,1,0,3,hard,-0.0804904597259572,-0.993555555555556,0.277413554633472,-0.33069018404908,-0.155266666666667,0.212272727272727,0.35,0.602604166666667,0.185209973753281,1.11419306184012,-0.134645247657296,HIT
10521,1,16,3,18,48509,1,1,0.819543185003567,0,257.0,270.0,0,0,0,1,1,0,11393,1,0,3,hard,0.384708669483929,-0.0029178743961351,0.320290456431535,0.719243353783231,0.247304761904762,0.337906336088154,-0.0798039215686274,0.495625,0.537244094488189,0.153574660633484,0.413788487282463,HIT
10532,1,16,3,30,65377,1,1,1.11464832199272,0,3183.0,,0,0,0,1,1,0,11405,1,0,2,hard,0.264049174029965,0.65824154589372,0.288367911479945,0.616988752556237,0.293209523809524,-0.0513636363636363,-0.843333333333333,-0.101875,-0.227309711286089,0.208491704374057,-0.291097724230254,HIT
10549,1,16,3,48,5460,1,1,0.930242253001779,0,291.0,,0,0,0,1,1,0,11423,1,0,2,hard,0.175749775899603,0.201101449275362,0.345656984785615,0.324739263803681,0.479971428571429,-0.218553719008264,0.339019607843137,0.230416666666667,-0.0813385826771653,0.347179487179487,-0.366425702811245,HIT
10594,1,16,4,38,12799,1,1,0.858186709985603,0,1576.0,,0,0,0,1,1,0,11476,1,0,2,hard,-0.217514406454091,-0.26480193236715,-0.117247579529737,0.0732873210633946,-0.321847619047619,-0.333484848484848,-0.0170588235294117,-0.655416666666667,-0.356745406824147,-0.430678733031674,-0.377322623828648,HIT
10601,1,16,4,46,42127,1,1,1.27132724400144,0,7576.0,,0,0,0,1,1,0,11484,1,0,2,hard,0.131844026123703,-0.821913043478261,0.429142461964039,0.432617586912065,0.333295238095238,-0.28801652892562,0.187254901960784,0.71,0.127270341207349,0.332141779788839,0.251700133868809,HIT
10608,1,16,4,54,48680,1,0,-1.33879544801312,0,2847.0,,0,1,1,0,0,0,11492,1,0,2,hard,0.091970802919708,0.211603864734299,0.30387275242047,0.139621676891616,-0.102552380952381,-0.0613360881542699,-0.669607843137255,-0.3453125,-0.111062992125984,0.175671191553545,0.259785809906292,MISS
10618,1,16,5,4,67296,1,1,0.513383778976277,0,3479.0,,0,0,0,1,1,0,11504,1,0,2,hard,-0.219618389038289,-0.335236714975845,0.170055325034578,-0.677914110429448,-0.524666666666667,0.0571349862258953,0.534509803921569,0.3659375,0.306784776902887,0.536772247360483,-0.411780455153949,HIT
10622,1,16,5,8,55527,1,1,0.876818135962821,0,3275.0,,0,0,0,1,1,0,11508,1,0,2,hard,0.137054680496863,0.135420289855073,0.328229598893499,0.381359918200409,0.359504761904762,-0.345192837465565,-0.208039215686274,-0.872604166666667,-0.607270341207349,0.270723981900452,0.264538152610442,HIT
10628,1,16,5,14,59285,1,0,-1.21489373099757,0,268.0,,0,1,1,0,0,0,11514,1,0,2,hard,0.532960686387502,-0.287236714975845,0.673070539419087,0.959769938650307,0.429390476190476,0.13530303030303,0.716470588235294,1.33291666666667,0.936430446194226,0.808974358974359,0.176358768406961,MISS
10643,1,16,5,32,61798,1,0,-1.20296638598666,0,7451.0,,0,1,1,0,0,0,11532,1,0,2,hard,0.574081188372391,1.01066666666667,0.474702627939142,0.162965235173824,0.504790476190476,0.703429752066116,0.139803921568627,0.8728125,0.890223097112861,1.09046757164404,0.323989290495315,MISS
10675,1,16,6,4,56868,1,1,1.90269587899093,0,8330.0,,0,0,0,1,1,0,11567,1,0,2,hard,-0.426899731079524,-1.10542028985507,-0.130082987551867,-0.562024539877301,-0.371304761904762,-0.461501377410468,-0.552941176470588,0.3884375,-0.394842519685039,0.0805580693815987,-0.0440294511378848,HIT
10682,1,16,6,12,32233,1,0,-0.937575912976172,0,328.0,386.0,0,1,1,0,0,0,11575,1,0,3,hard,0.0545153028556793,-0.37543961352657,0.246970954356846,0.389585889570552,0.208095238095238,-0.247713498622589,-0.0541176470588235,-0.0438541666666666,-0.313070866141732,-0.0708898944193061,0.170776439089692,MISS
10703,1,16,6,38,72720,1,0,-0.763099178962875,0,8674.0,,0,1,1,0,0,0,11601,1,1,2,hard,0.62618901267768,0.366811594202899,0.527648686030429,0.386646216768916,0.593247619047619,0.854573002754821,0.731176470588235,1.95572916666667,1.22274278215223,1.45322775263952,0.0119143239625167,MISS
10721,1,16,6,59,53729,1,0,-0.836657678009942,0,7634.0,,0,1,1,0,0,0,11622,1,0,2,hard,0.0669816877961326,-0.517874396135266,0.58881051175657,0.0418507157464212,0.246809523809524,-0.0389807162534435,0.779607843137255,0.3715625,0.133359580052493,0.027526395173454,0.167791164658635,MISS
10775,1,16,7,58,60506,1,1,1.38852222199785,0,9138.0,10242.0,0,0,0,1,1,0,11683,1,0,3,hard,0.459134332180817,0.354338164251208,0.80387275242047,0.293241308793456,0.252314285714286,0.116391184573003,-0.174705882352941,1.27979166666667,0.518648293963255,1.58289592760181,0.208580990629183,HIT
10801,1,16,8,23,45844,1,0,-1.05468001996633,0,2254.0,4611.0,0,1,1,0,0,0,11711,1,0,3,hard,0.0036393904469202,-0.30287922705314,-0.0563485477178423,0.0892075664621676,-0.074647619047619,0.107410468319559,-0.0380392156862745,0.648958333333333,0.191456692913386,0.116440422322775,-0.100267737617135,MISS
10811,1,16,8,34,56682,1,1,0.701461007993203,0,580.0,,0,0,0,1,1,0,11722,1,0,2,hard,0.0353399923165578,0.846927536231884,-0.080567081604426,0.131216768916155,-0.188733333333333,-0.0388154269972451,-0.127450980392157,0.259895833333333,-0.230196850393701,-0.276621417797888,-0.310977242302543,HIT
10817,1,16,8,42,53892,1,0,-1.16631926200353,0,10738.0,10785.0,0,1,1,0,0,0,11730,1,0,3,hard,0.342586758867973,-0.414193236714976,0.443554633471646,0.463819018404908,0.4686,0.24599173553719,0.136274509803922,1.005,0.52236220472441,0.717707390648567,0.305354752342704,MISS
10840,1,16,9,6,47688,1,0,-1.1992986430414,0,8714.0,,0,1,1,0,0,0,11756,1,0,2,hard,0.382106543731592,-0.698173913043478,0.768215767634855,0.524550102249489,0.337790476190476,0.237961432506887,0.674509803921569,1.48520833333333,0.67490813648294,1.26143288084465,0.0937215528781793,MISS
10861,1,16,9,28,57061,1,1,1.1697497809655,0,2632.0,,0,0,0,1,1,0,11778,1,0,2,hard,-0.681466256883084,-1.50567149758454,-0.458575380359613,-0.395899795501023,-0.74867619047619,-0.580055096418733,-0.152941176470588,-1.18791666666667,-1.24977690288714,-0.298597285067873,-0.238152610441767,HIT
10870,1,16,9,38,64296,1,0,-0.756988245993853,0,2100.0,,0,1,1,0,0,0,11788,1,0,2,hard,-0.0918491484184914,0.699739130434783,0.305532503457815,-0.248542944785276,-0.166895238095238,-0.367245179063361,-0.426666666666667,-0.533229166666667,-0.50762467191601,0.254162895927602,-0.593199464524766,MISS
10896,1,16,10,6,60187,1,1,1.07362845999887,0,5077.0,,0,0,0,1,1,0,11819,1,0,2,hard,0.395078755282366,-0.111739130434782,0.717565698478562,0.477648261758691,0.44567619047619,0.189862258953168,-0.0541176470588236,0.5690625,0.315761154855643,1.11823529411765,0.144672021419009,HIT
10936,1,16,10,48,7655,1,0,-1.82295628497377,0,8780.0,,0,1,1,0,0,0,11861,1,0,2,hard,0.257099500576258,0.206009661835749,0.56045643153527,0.242760736196319,-0.0924380952380952,0.234063360881543,0.0525490196078431,0.40375,0.37005249343832,0.886923076923077,-0.093574297188755,MISS
11012,1,16,12,8,64484,1,1,1.26597063202644,0,896.0,,0,0,0,1,1,0,11946,1,0,2,hard,0.0059815597387629,-0.482840579710145,0.18789764868603,0.0725869120654396,-0.201761904761905,0.20900826446281,0.393725490196078,0.502083333333333,-0.0646194225721785,0.806983408748115,-0.301659973226238,HIT
11060,1,17,1,2,51984,1,0,-1.40804411499994,0,4527.0,,0,1,1,0,0,0,12002,1,0,2,hard,-0.0324279677295428,-0.405091787439613,0.414564315352697,0.265531697341513,-0.427857142857143,-0.118677685950413,-0.230392156862745,-1.02583333333333,-0.163661417322835,0.482805429864253,-0.271512717536814,MISS
11061,1,17,1,3,14794,1,0,-1.01537061395356,0,10816.0,,0,1,1,0,0,0,12003,1,0,2,hard,0.485720322704572,0.27207729468599,0.809280774550484,0.877561349693252,-0.0193047619047618,0.732052341597796,-0.0913725490196078,0.362604166666667,0.361364829396325,0.72236802413273,-0.114953145917001,MISS
11079,1,17,1,23,20651,1,0,-1.8026133919484,0,876.0,2359.0,0,1,1,0,0,0,12023,1,0,3,hard,0.10335638365988,-0.518386473429952,0.149059474412171,0.354815950920245,0.2438,-0.349628099173554,-0.0880392156862745,0.244166666666667,0.181968503937008,0.393453996983409,0.162275769745649,MISS
11085,1,17,1,29,60187,1,1,1.0896616159589,0,209.0,5287.0,0,0,0,1,1,0,12029,1,0,3,hard,-0.17453195031374,-0.528850241545894,0.150663900414938,-0.257137014314928,-0.345180952380952,0.327355371900826,0.092156862745098,-0.471770833333333,-0.233608923884514,-0.0883107088989441,-0.0262382864792503,HIT
11099,1,17,1,44,11522,1,1,0.98193737200927,0,117.0,9897.0,0,0,0,1,1,0,12044,1,0,3,hard,0.194152900499424,-0.220541062801932,0.18387275242047,0.452566462167689,0.282361904761905,0.164820936639118,-0.331372549019608,0.431770833333333,0.0065748031496062,0.583650075414781,-0.142463186077644,HIT
11105,1,17,1,52,10245,1,0,-0.943111394997686,0,6806.0,,0,1,1,0,0,0,12052,1,0,2,hard,0.545848380074273,0.712270531400966,0.629059474412171,0.477418200408998,0.418009523809524,0.293195592286501,0.247843137254902,0.585104166666667,0.377979002624672,1.95236802413273,-0.222663989290495,MISS
11115,1,17,2,1,38298,1,1,1.07261716102948,0,173.0,,0,0,0,1,1,0,12064,1,0,2,hard,0.34397874247663,-0.519652173913044,1.06441217150761,0.667147239263804,0.0073619047619047,-0.290853994490358,0.418235294117647,0.558854166666667,0.292795275590551,1.52233785822021,0.0608969210174029,HIT
11171,1,17,3,6,7655,1,1,1.8569621409988,0,269.0,9050.0,0,0,0,1,1,0,12131,1,0,3,hard,0.268533743116916,-0.379777777777778,0.239944674965422,0.503665644171779,0.0163047619047618,0.374559228650138,0.427058823529412,0.3471875,0.329409448818898,1.03253393665158,0.0691566265060241,HIT
11188,1,17,3,28,60252,1,1,1.26934497099137,0,175.0,,0,0,0,1,1,0,12153,1,0,2,hard,0.245647330003842,0.206705314009662,0.180373443983402,0.198788343558282,0.36332380952381,0.0513360881542699,0.23078431372549,0.720729166666667,0.143543307086614,1.06500754147813,-0.174190093708166,HIT
11218,1,17,3,60,25112,1,1,1.232825708983,0,9727.0,9816.0,0,0,0,1,1,0,12185,1,1,3,hard,0.159467281342041,-0.231400966183575,0.51015214384509,0.0897903885480572,-0.121409523809524,0.321542699724518,0.21156862745098,-0.0760416666666666,0.274317585301837,0.80182503770739,0.120776439089692,HIT
11239,1,17,4,21,23872,1,1,1.64099843497388,0,268.0,,0,0,0,1,1,0,12209,1,0,2,hard,0.110671020617236,0.0132173913043478,0.438188105117566,0.0502658486707566,0.454038095238095,-0.44396694214876,-0.221764705882353,0.519895833333333,-0.0213123359580052,0.45316742081448,-0.0559705488621151,HIT
11249,1,17,4,34,42215,1,1,1.08624082797905,0,2666.0,,0,0,0,1,1,0,12222,1,0,2,hard,0.380856703803304,-0.380338164251208,0.609557399723375,0.68808282208589,0.614980952380952,0.0753168044077135,0.369803921568627,0.4740625,0.498044619422572,0.365173453996983,0.260722891566265,HIT
11251,1,17,4,36,21195,1,1,1.24924819899024,0,422.0,,0,0,0,1,1,0,12224,1,0,2,hard,0.398663081060315,0.579574879227053,0.400235131396957,0.386002044989775,0.238190476190476,0.447699724517906,0.371176470588235,-0.173125,0.469461942257218,0.776018099547511,0.0257563587684069,HIT
11260,1,17,4,46,65800,1,0,-1.58639271499123,0,4544.0,4602.0,0,1,1,0,0,0,12234,1,1,3,hard,0.340895121014214,0.548888888888889,0.687302904564315,0.204432515337423,0.0047142857142857,0.427079889807162,0.196862745098039,-0.279375,0.251312335958005,0.968597285067873,0.0873493975903614,MISS
11354,1,17,6,29,6522,1,0,-1.01946912001586,0,9123.0,9210.0,0,1,1,0,0,0,12342,1,1,3,hard,0.525608912792931,0.186734299516908,1.11388658367911,0.667157464212679,0.544066666666667,0.168925619834711,0.028235294117647,1.41854166666667,0.650472440944882,0.131025641025641,0.517871485943775,MISS
11376,1,17,6,55,3172,1,1,1.67249757196987,0,10569.0,,0,0,0,1,1,0,12368,1,1,2,hard,-0.0883250096043027,-0.815458937198068,0.012448132780083,-0.28002044989775,-0.0706571428571428,0.170785123966942,-0.0150980392156862,0.0895833333333333,0.16745406824147,0.871357466063348,-0.0936412315930388,HIT
11418,1,17,7,44,67803,1,1,0.922611704969313,0,4591.0,9831.0,0,0,0,1,1,0,12419,1,0,3,hard,0.0727032910744013,-0.914367149758454,0.520262793914246,-0.0219018404907975,-0.0804285714285714,0.344504132231405,0.287450980392157,0.208541666666667,0.686994750656168,0.762488687782805,-0.0650066934404283,HIT
11447,1,17,8,14,33246,1,1,0.950445639959071,0,3583.0,,0,0,0,1,1,0,12452,1,0,2,hard,0.24614163145089,0.87983574879227,0.10149377593361,0.05280163599182,0.055095238095238,0.556584022038567,0.427254901960784,0.0368749999999999,0.15488188976378,0.278084464555053,0.0604819277108433,HIT
11481,1,17,8,51,37437,1,0,-1.00891739799408,0,3333.0,,0,1,1,0,0,0,12489,1,0,2,hard,0.241634012037393,-0.0738260869565217,0.465352697095436,0.129575664621677,0.266485714285714,0.0695730027548209,-0.157843137254902,0.6234375,0.261509186351706,1.13796380090498,0.0502945113788487,MISS
11482,1,17,8,52,9435,1,0,-1.40226767299464,0,10893.0,10998.0,0,1,1,0,0,0,12490,1,0,3,hard,0.482192342169292,0.210531400966184,0.444287690179806,0.70819018404908,0.580647619047619,0.331804407713499,0.0029411764705882,0.3371875,0.332099737532808,0.719396681749623,0.30520749665328,MISS
11485,1,17,8,55,57047,1,1,1.30903376801871,0,6136.0,12339.0,0,0,0,1,1,0,12493,1,0,3,hard,0.114195159431425,0.272772946859903,0.668395573997234,0.243410020449898,-0.336504761904762,0.0182644628099173,0.751764705882353,-0.2484375,-0.10005249343832,0.219547511312217,-0.125394912985274,HIT
11545,1,17,10,2,17464,1,1,1.28769957699114,0,1489.0,,0,0,0,1,1,0,12565,1,0,2,hard,0.209016519400691,-0.0185700483091789,0.780069156293223,-0.0495756646216768,-0.0312285714285714,0.172465564738292,0.378235294117647,0.0442708333333333,0.268477690288714,1.6073604826546,-0.270160642570281,HIT
11681,1,17,12,31,11933,1,0,-1.10165776999202,0,6017.0,11313.0,0,1,1,0,0,0,12719,1,0,3,hard,-0.267893456268408,-0.924425120772947,-0.336224066390041,-0.195485685071575,-0.0526190476190476,-0.465179063360881,-0.544313725490196,0.688229166666667,-0.0313123359580052,0.0527149321266967,-0.222449799196787,MISS
11701,1,17,12,54,38830,1,1,0.804481838014908,0,3845.0,9152.0,0,0,0,1,1,0,12742,1,0,3,hard,-0.333120758099629,0.0887439613526569,-0.569806362378976,-0.730444785276073,0.153542857142857,-0.366515151515151,-0.676274509803922,0.818229166666667,-0.383910761154856,-0.538823529411765,-0.189933065595716,HIT
11717,1,18,1,10,19075,1,0,-1.14104852208402,0,56.0,,0,1,1,0,0,0,12760,1,0,2,hard,0.446251760788833,-0.0503961352657004,0.314730290456432,0.598425357873211,0.439485714285714,0.43801652892562,0.653333333333333,0.956875,0.735918635170604,0.612277526395173,0.358125836680053,MISS
11720,1,18,1,13,68742,1,1,1.44498934701551,0,274.0,,0,0,0,1,1,0,12763,1,1,2,hard,0.224109360993725,-0.443536231884058,0.335905947441217,0.0282464212678936,0.147380952380952,0.577548209366391,0.357058823529412,1.0525,0.372690288713911,1.61767722473605,-0.185796519410977,HIT
11728,1,18,1,22,18691,1,1,1.83666720904876,0,5548.0,,0,0,0,1,1,0,12772,1,0,2,hard,0.545557689845051,0.508599033816425,0.717067773167358,0.847980572597137,0.223190476190476,0.604600550964187,-0.0011764705882353,0.479270833333333,0.41250656167979,0.872398190045249,-0.0738955823293172,HIT
11733,1,18,1,29,66279,1,1,1.12180103606079,0,5822.0,5861.0,0,0,0,1,1,0,12779,1,0,3,hard,0.457856319631195,0.523594202898551,0.843554633471646,0.962576687116565,0.0493619047619047,0.230482093663912,-0.264705882352941,-0.311145833333333,0.053005249343832,0.550693815987934,-0.0542168674698795,HIT
11751,1,18,1,49,24740,1,0,-1.00214481004514,0,287.0,,0,1,1,0,0,0,12799,1,0,2,hard,-0.238401844026124,-1.13329468599034,0.0037344398340249,-0.360915132924335,-0.163380952380952,-0.293181818181818,-0.157058823529412,0.0864583333333333,0.0431496062992125,0.539411764705882,0.0108835341365461,MISS
11755,1,18,1,53,46003,1,0,-1.74940530303866,0,12801.0,,0,1,1,0,0,0,12803,1,0,2,hard,-0.0846753745678063,-0.186937198067633,0.0862102351313969,-0.0020756646216769,-0.170914285714286,-0.332658402203857,-0.456666666666667,-0.280208333333333,-0.198425196850394,0.345384615384615,-0.177576974564926,MISS
11813,1,18,2,60,3914,1,0,-1.20316097000614,0,5809.0,5839.0,0,1,1,0,0,0,12873,1,1,3,hard,0.603056729414778,0.0632657004830918,0.85716459197787,0.566912065439673,0.479980952380952,0.828457300275482,0.415294117647059,0.747083333333333,0.585984251968504,1.4753544494721,0.391111111111111,MISS
11842,1,18,3,31,32892,1,0,-1.03501092910301,0,484.0,,0,1,1,0,0,0,12906,1,0,2,hard,0.754820079395569,0.928908212560386,0.868008298755187,0.663307770961145,0.854752380952381,0.302892561983471,0.105882352941176,0.6571875,0.595419947506562,1.79648567119155,0.237362784471218,MISS
11877,1,18,4,4,50115,1,1,1.60839050391223,0,8517.0,8726.0,0,0,0,1,1,0,12942,1,1,3,hard,0.221053912152644,0.157207729468599,0.139737206085754,0.438875255623722,0.34047619047619,-0.401404958677686,0.187843137254902,0.207395833333333,-0.168700787401575,1.0767269984917,-0.10289156626506,HIT
11941,1,18,5,17,71754,1,1,0.540267459000461,0,12547.0,,0,0,0,1,1,0,13017,1,0,2,hard,0.515231143552311,0.109227053140096,0.765352697095436,0.518640081799591,0.65272380952381,0.336253443526171,0.57921568627451,0.466458333333333,0.610183727034121,1.13393665158371,0.16334672021419,HIT
11951,1,18,5,27,66774,1,0,-0.951764108031057,0,2545.0,,0,1,1,0,0,0,13027,1,0,2,hard,0.565643488282751,1.392,0.132863070539419,0.749355828220859,0.826714285714286,-0.14935261707989,0.16843137254902,0.3184375,0.139776902887139,0.623604826546003,0.128313253012048,MISS
11956,1,18,5,32,48158,1,1,0.804264995036647,0,6649.0,6996.0,0,0,0,1,1,0,13032,1,0,3,hard,-0.0897733384556281,0.338521739130435,0.237385892116182,-0.330828220858896,-0.249095238095238,-0.0082231404958677,0.433137254901961,0.415729166666667,-0.199160104986877,-0.14867269984917,-0.160763052208835,HIT
11972,1,18,5,50,60252,1,1,0.904056786908768,0,896.0,1072.0,0,0,0,1,1,0,13050,1,0,3,hard,0.461668587527212,0.371236714975845,0.363167358229599,0.384769938650307,0.295057142857143,0.479765840220386,0.285882352941176,0.499479166666667,0.838412073490814,1.25980392156863,0.0147121820615796,HIT
11981,1,18,5,59,43160,1,1,1.418190477998,0,1124.0,,0,0,0,1,1,0,13059,1,0,2,hard,0.0813202714816237,-0.58992270531401,0.691756569847856,0.0273057259713701,-0.143561904761905,0.170564738292011,0.55156862745098,0.228854166666667,0.190879265091864,0.896440422322775,-0.0949531459170013,HIT
12007,1,18,6,25,28320,1,1,0.767658214899711,0,1939.0,,0,0,0,1,1,0,13088,1,0,2,hard,0.472780125496222,0.603661835748792,0.204979253112033,-0.0603220858895705,0.812533333333333,0.469462809917355,0.439019607843137,1.52916666666667,0.406010498687664,2.21812971342383,-0.142222222222222,HIT
12030,1,18,6,50,40980,1,1,1.26701384899206,0,2093.0,,0,0,0,1,1,0,13113,1,0,2,hard,0.441913177103342,-0.481777777777778,0.624993084370678,0.301145194274029,0.53767619047619,0.706900826446281,0.526274509803922,0.465729166666667,0.558871391076115,1.97054298642534,0.0361178045515394,HIT
12036,1,18,6,57,56851,1,1,1.16113235696685,0,3103.0,3327.0,0,0,0,1,1,0,13120,1,0,3,hard,0.749749007555385,0.813217391304348,1.26528354080221,1.02862985685072,0.534352380952381,0.529972451790634,-0.119607843137255,-0.394895833333333,0.398963254593176,1.1158371040724,0.188326639892905,HIT
12045,1,18,7,5,28160,1,1,1.4762812879635,0,6380.0,10033.0,0,0,0,1,1,0,13130,1,0,3,hard,0.182459982071968,-0.474492753623188,0.438741355463347,0.283716768916155,0.316857142857143,-0.0020110192837465,0.418039215686275,1.16354166666667,0.401443569553806,0.53630467571644,-0.109718875502008,HIT
12069,1,18,7,36,41928,1,0,-0.847668041009456,0,3810.0,,0,1,1,0,0,0,13161,1,0,2,hard,0.230955307977974,-0.269545893719807,0.145892116182573,0.48172290388548,0.133885714285714,0.145110192837466,0.375882352941176,1.30729166666667,0.264632545931759,0.823348416289593,-0.138353413654618,MISS
12080,1,18,7,48,72016,1,1,1.04461157601327,0,2079.0,8796.0,0,0,0,1,1,0,13173,1,1,3,hard,0.303507491356127,-0.413594202898551,0.686459197786999,0.411605316973415,0.157666666666667,0.354600550964187,0.512352941176471,1.02239583333333,0.244146981627297,1.39202111613876,-0.213480589022758,HIT
12113,1,18,8,21,25269,1,1,1.40447101905011,0,10936.0,10995.0,0,0,0,1,1,0,13209,1,0,3,hard,0.12528748879498,-0.754454106280193,0.608907330567082,0.235327198364008,0.0433333333333333,-0.184490358126722,-0.0813725490196078,-0.2984375,0.282086614173228,1.16331825037707,-0.008433734939759,HIT
12181,1,18,9,43,9848,1,0,-1.21038200706244,0,9416.0,,0,1,1,0,0,0,13293,1,0,2,hard,-0.151518760404661,-0.86704347826087,0.0988658367911479,-0.278353783231084,0.0999999999999999,-0.107933884297521,-0.252352941176471,0.24875,0.0480314960629921,0.536093514328808,-0.324658634538153,MISS
12186,1,18,9,49,30408,1,0,-1.30153076001443,0,4052.0,,0,1,1,0,0,0,13299,1,1,2,hard,-0.133854526828019,-0.822512077294686,0.165809128630705,-0.0571319018404908,-0.135942857142857,-0.22198347107438,0.296470588235294,0.0665624999999999,0.184068241469816,0.179653092006033,-0.239732262382865,MISS
12209,1,18,10,14,28525,1,0,-0.852500400040299,0,8364.0,,0,1,1,0,0,0,13327,1,0,2,hard,0.200827250608273,-0.251130434782609,0.42088520055325,-0.0464059304703476,-0.140552380952381,0.333815426997245,-0.006078431372549,0.114166666666667,0.612191601049869,1.46692307692308,0.0939357429718875,MISS
12213,1,18,10,18,42215,1,1,0.871021094964817,0,1108.0,3775.0,0,0,0,1,1,0,13331,1,0,3,hard,0.740863106671789,0.486763285024155,0.80582295988935,0.805674846625767,0.674019047619048,0.739256198347107,0.826470588235294,0.26875,1.02266404199475,0.746365007541478,0.718353413654618,HIT
12233,1,18,10,43,41483,1,0,-0.803140709060244,0,12050.0,,0,1,1,0,0,0,13356,1,0,2,hard,0.167614291202459,0.28192270531401,0.224232365145228,-0.226768916155419,0.28747619047619,0.208250688705234,0.176078431372549,0.230833333333333,0.23009186351706,0.712036199095023,0.223507362784471,MISS
12259,1,18,11,13,3172,1,1,1.13305412302725,0,1019.0,11589.0,0,0,0,1,1,0,13388,1,1,3,hard,0.614270713279549,1.68008695652174,0.437814661134163,0.299948875255624,0.84112380952381,0.748484848484849,0.114313725490196,0.602395833333333,0.371771653543307,0.297571644042232,0.246171352074966,HIT
12297,1,18,11,59,14821,1,0,-1.4874216610333,0,4732.0,,0,1,1,0,0,0,13434,1,0,2,hard,0.155464207965168,-0.0351690821256038,0.186154910096819,0.330255623721881,-0.0842857142857142,0.0295730027548209,0.192745098039216,0.2196875,0.269278215223097,0.514027149321267,-0.0535876840696117,MISS
12304,1,18,12,7,31234,1,0,-0.940119451028295,0,7149.0,,0,1,1,0,0,0,13445,1,0,2,hard,0.272402356255602,-0.358541062801932,0.51073305670816,0.357955010224949,0.219085714285714,-0.0915702479338842,-0.0039215686274509,-0.168229166666667,0.565682414698163,1.08734539969834,0.173614457831325,MISS
12355,1,19,1,9,51186,1,0,-1.51224927301519,0,8482.0,,0,1,1,0,0,0,13509,1,0,2,hard,-0.0294634396209501,0.177990338164251,-0.34911479944675,-0.0537218813905929,-0.110447619047619,0.127451790633609,0.0915686274509803,0.255729166666667,0.157887139107612,-0.191191553544495,-0.0751539491298527,MISS
12356,1,19,1,10,10007,1,1,1.62751116696745,0,198.0,214.0,0,0,0,1,1,0,13510,1,0,3,hard,0.139355871430401,0.0187826086956521,0.480954356846473,0.328578732106339,-0.139104761904762,-0.0313498622589531,0.594901960784314,0.0916666666666666,-0.108556430446194,0.44447963800905,-0.0052610441767068,HIT
12371,1,19,1,27,71451,1,1,1.45136001496576,0,52.0,85.0,0,0,0,1,1,0,13527,1,0,3,hard,0.293050326546293,0.157458937198068,0.14820193637621,0.197914110429448,0.149828571428571,0.330619834710744,0.0211764705882353,0.563020833333333,0.576443569553806,1.03426847662142,0.0719410977242302,HIT
12393,1,19,1,52,44845,1,0,-0.848604141036049,0,11537.0,11906.0,0,1,1,0,0,0,13552,1,1,3,hard,0.0788846203098988,-0.353942028985507,0.502448132780083,-0.0883895705521472,-0.0892571428571428,0.325922865013774,0.695882352941176,0.598541666666667,0.194750656167979,0.947179487179487,-0.294872824631861,MISS
12408,1,19,2,4,42172,1,1,1.20194753608666,0,5236.0,13334.0,0,0,0,1,1,0,13567,1,0,3,hard,0.354026123703419,0.0448695652173912,0.757275242047026,0.193824130879346,0.461190476190476,0.311225895316804,-0.026078431372549,0.631458333333333,0.47005249343832,1.17401206636501,-0.15330655957162,HIT
12448,1,19,2,47,41098,1,0,-1.71064448298421,0,8235.0,8258.0,0,1,1,0,0,0,13610,1,0,3,hard,0.181779997438853,0.263565217391304,0.339280774550484,0.114672801635992,0.262295238095238,0.0058953168044077,-0.0505882352941176,-0.0580208333333333,-0.0767979002624671,0.344585218702866,0.315461847389558,MISS
12506,1,19,3,47,27831,1,0,-1.21204661193769,0,4464.0,,0,1,1,0,0,0,13672,1,0,2,hard,0.347039313612498,0.0551980676328502,0.798520055325035,0.618062372188139,0.0617047619047619,0.160550964187328,0.0931372549019607,0.524479166666667,0.269068241469816,0.752533936651584,-0.0987550200803213,MISS
12566,1,19,4,51,68815,1,1,0.678624331951141,0,243.0,488.0,0,0,0,2,1,0,13739,1,0,3,hard,0.0836048149571007,0.0612657004830917,0.225200553250346,0.215439672801636,-0.0289714285714285,0.0413223140495867,0.0474509803921568,0.163854166666667,0.0166535433070866,-0.017918552036199,-0.0178045515394913,HIT
12582,1,19,5,7,29382,1,1,0.856658221920952,0,2903.0,3369.0,0,0,0,1,1,0,13757,1,0,3,hard,0.114105519272634,0.006695652173913,0.175905947441217,0.451048057259714,-0.0862285714285714,-0.11431129476584,0.178823529411765,-0.0963541666666666,-0.0672178477690289,0.0398190045248868,0.0979518072289156,HIT
12585,1,19,5,10,59047,1,1,1.26028214592952,0,10743.0,10820.0,0,0,0,1,1,0,13760,1,0,3,hard,-0.0064195159431425,-0.250125603864734,-0.168229598893499,-0.158026584867076,0.0319714285714285,0.157231404958678,0.304901960784314,-0.0420833333333333,0.197900262467192,0.407073906485671,0.0797322623828648,HIT
12642,1,19,6,10,10611,1,0,-1.02120772597846,0,9789.0,,0,1,1,0,0,0,13823,1,0,2,hard,-0.0805122294788065,-0.39495652173913,-0.154218533886584,0.0204447852760736,-0.110009523809524,-0.185909090909091,0.451764705882353,0.143958333333333,-0.176771653543307,0.411101055806938,-0.0972824631860776,MISS
12660,1,19,6,31,22144,1,0,-1.26569219608791,0,5434.0,,0,1,1,0,0,0,13844,1,0,2,hard,0.26975541042387,0.26648309178744,0.986459197786999,0.587975460122699,-0.22267619047619,0.371694214876033,-0.471176470588235,0.0345833333333333,0.132152230971129,-0.238174962292609,0.0124497991967871,MISS
12670,1,19,6,44,54699,1,1,1.63211819098797,0,11616.0,,0,0,0,1,1,0,13857,1,0,2,hard,0.0218773210398258,0.610212560386473,-0.0603319502074689,-0.0916411042944785,-0.0362666666666666,-0.0538292011019283,-0.416274509803921,-0.401979166666667,-0.168136482939632,0.0738159879336349,-0.02904953145917,HIT
12690,1,19,7,3,44139,1,1,0.860068210982717,0,709.0,,0,0,0,1,1,0,13878,1,0,2,hard,-0.0379869381482904,-0.199855072463768,0.477109266943292,-0.21329754601227,-0.124266666666667,-0.133760330578512,-0.260980392156863,-0.2440625,-0.20996062992126,0.668099547511312,-0.0484069611780455,HIT
12719,1,19,7,36,11953,1,1,1.41361061495263,0,2455.0,4318.0,0,0,0,1,1,0,13911,1,0,3,hard,0.300469970546805,0.392888888888889,0.0552282157676348,0.448072597137014,0.254504761904762,0.232534435261708,0.685490196078431,-0.075,0.15997375328084,0.540950226244344,0.105769745649264,HIT
12727,1,19,7,47,22795,1,1,1.57893715600949,0,1942.0,2224.0,0,0,0,1,1,0,13922,1,0,3,hard,-0.0884850813164297,-0.655149758454106,0.045103734439834,-0.117566462167689,-0.0882190476190476,-0.0490633608815427,0.322745098039216,0.101041666666667,0.0803937007874015,0.60868778280543,-0.238661311914324,HIT
12733,1,19,7,55,40722,1,0,-1.41278782591689,0,5243.0,,0,1,2,0,0,0,13930,1,0,2,hard,0.266844666410552,0.0640193236714976,0.642392807745505,0.381288343558282,0.101704761904762,0.112382920110193,0.0172549019607843,-0.290625,0.16011811023622,0.681553544494721,0.0964390896921017,MISS
12779,1,19,8,40,46524,1,1,1.12721736507956,0,527.0,,0,0,0,1,1,0,13978,1,0,2,hard,0.413992828787297,0.706164251207729,0.530331950207469,0.836533742331288,-0.0208761904761904,0.0971349862258953,0.0590196078431372,0.404375,0.106312335958005,0.639426847662142,-0.151378848728246,HIT
12850,1,19,9,61,61739,1,0,-0.801318321027793,0,7573.0,7812.0,0,1,1,0,0,0,14061,1,0,3,hard,0.223133563836599,-0.598647342995169,0.738976486860304,0.651247443762781,0.0315904761904761,0.204462809917355,-0.138823529411765,0.266666666666667,-0.034514435695538,0.990980392156863,-0.370709504685408,MISS
12885,1,19,10,39,17451,1,1,1.07705975405406,0,1060.0,,0,0,0,1,1,0,14102,1,0,2,hard,0.198864131130747,0.0162898550724638,0.308934993084371,0.481201431492843,0.109714285714286,0.0014187327823691,-0.241764705882353,0.151041666666667,-0.0379396325459317,0.455595776772247,-0.026867469879518,HIT
12905,1,19,10,61,43446,1,0,-0.904508587089367,0,8571.0,8787.0,0,1,1,0,0,0,14124,1,0,3,hard,0.24218465872711,-0.61968115942029,1.13290456431535,0.110112474437628,0.0113809523809524,0.19,0.346470588235294,0.94875,0.442125984251968,1.44600301659125,-0.0751271753681392,MISS
13060,1,20,1,47,43985,1,0,-1.10363535699435,0,9372.0,,0,1,1,0,0,0,14297,1,0,2,hard,-0.256867716737098,-0.481004830917874,0.263029045643153,-0.205424335378323,-0.220838095238095,-0.378457300275482,-0.147843137254902,-0.785416666666667,-0.57251968503937,0.0098340874811462,-0.370923694779116,MISS
13066,1,20,1,54,72210,1,1,0.990081501076929,0,7688.0,8641.0,0,0,0,1,1,0,14304,1,0,3,hard,0.0955295172237162,0.10063768115942,0.328865836791148,0.317827198364008,-0.0030571428571428,-0.0526997245179063,-0.24843137254902,0.294583333333333,-0.0935826771653543,-0.374404223227753,0.171070950468541,HIT
13077,1,20,2,3,34830,1,0,-1.17757484794129,0,9217.0,9344.0,0,1,1,0,0,0,14316,1,1,3,hard,0.270747855039058,0.0700869565217391,0.672351313969571,0.109366053169734,0.107571428571428,0.259380165289256,0.636470588235294,0.7828125,0.310669291338583,0.952941176470588,0.0860776439089692,MISS
13087,1,20,2,16,43676,1,1,0.838754215976223,0,229.0,,0,0,0,1,1,0,14329,1,1,2,hard,0.159628633627865,0.475787439613527,0.440788381742739,0.233532719836401,-0.0259142857142857,-0.0631955922865013,-0.197647058823529,-0.0539583333333333,-0.0020341207349081,-0.174811463046757,0.246880856760375,HIT
13088,1,20,2,17,27243,1,1,0.881168678984977,0,193.0,256.0,0,0,0,1,1,0,14330,1,1,3,hard,0.0839787424766295,0.23768115942029,0.395491009681881,-0.163747443762781,0.122390476190476,-0.128071625344353,-0.018235294117647,0.0252083333333333,0.0188976377952755,0.38209653092006,0.186599732262383,HIT
13099,1,20,2,29,17486,1,0,-1.35528759902809,0,3422.0,,0,1,1,0,0,0,14342,1,0,2,hard,0.283948008707901,-0.13807729468599,0.678215767634855,0.480373210633947,0.248314285714286,0.10232782369146,0.519019607843137,-0.024375,0.0828608923884514,0.599849170437406,0.147670682730924,MISS
13119,1,20,2,51,27879,1,1,0.933987310039811,0,5530.0,,0,0,0,1,1,0,14364,1,0,2,hard,-0.0854975028812908,0.0858840579710144,-0.0276071922544951,0.0750306748466258,-0.210228571428571,0.0042148760330578,-0.422549019607843,-0.3309375,-0.313556430446194,-0.499562594268477,-0.0564926372155287,HIT
13132,1,20,3,3,17239,1,1,0.786022390937433,0,4682.0,,0,0,0,1,1,0,14378,1,0,2,hard,0.302790370085798,-0.398386473429952,0.775712309820194,0.601083844580777,0.111085714285714,0.177575757575757,0.383529411764706,0.1415625,0.101272965879265,0.989592760180995,0.0378580990629183,HIT
13198,1,20,4,10,20821,1,0,-1.1183206429705,0,8570.0,,0,1,1,0,0,0,14448,1,0,2,hard,0.278186707645025,0.12551690821256,0.148561549100968,0.141738241308793,0.32627619047619,0.405371900826446,0.048235294117647,0.2996875,0.441522309711286,0.812443438914027,0.153400267737617,MISS
13214,1,20,4,30,59195,1,1,1.42021574289538,0,5567.0,5831.0,0,0,0,1,1,0,14468,1,0,3,hard,0.341678832116788,0.117497584541063,0.279681881051176,0.544565439672802,0.309990476190476,0.356818181818182,-0.196078431372549,0.505520833333333,0.360695538057743,0.450558069381599,0.1104953145917,HIT
13219,1,20,4,35,69840,1,0,-0.983839596970938,0,500.0,,0,1,1,0,0,0,14473,1,1,2,hard,0.309334101677551,1.39554589371981,0.426500691562932,0.0322137014314928,0.0919428571428571,0.359104683195592,-0.249019607843137,0.1075,0.176154855643045,0.296168929110106,-0.114631860776439,MISS
13263,1,20,5,19,24641,1,1,1.62845862295944,0,3781.0,,0,0,0,1,1,0,14519,1,1,2,hard,0.37338199513382,0.296096618357488,0.872116182572614,0.291088957055215,0.299828571428571,0.0332093663911845,0.434901960784314,0.1553125,0.269094488188976,0.990211161387632,0.229973226238286,HIT
13302,1,20,5,60,21219,1,1,0.863624871009961,0,3207.0,,0,0,0,1,1,0,14560,1,0,2,hard,0.479048533743117,0.0586183574879226,0.517565698478562,0.450761758691207,0.586266666666667,0.35896694214876,0.534509803921569,0.501041666666667,0.592244094488189,1.35704374057315,0.163012048192771,HIT
13314,1,20,6,9,50171,1,0,-1.60868882993236,0,4619.0,,0,1,1,0,0,0,14572,1,0,2,hard,0.278337815341273,-0.347053140096618,0.654495159059475,0.415270961145194,0.193,0.196542699724518,0.308039215686275,0.952291666666667,0.372834645669291,0.533318250377074,0.210321285140562,MISS
13392,1,20,7,35,10065,1,1,0.816132161999121,0,10349.0,10436.0,0,0,0,1,1,0,14660,1,0,3,hard,0.349006274811115,0.0105797101449275,0.568520055325035,0.0735889570552147,0.42967619047619,0.516115702479339,0.963529411764706,1.90875,0.752296587926509,0.677224736048265,0.105716198125837,HIT
13416,1,20,7,60,14821,1,1,0.806118657928891,0,1250.0,5983.0,0,0,0,2,1,0,14685,1,0,3,hard,-0.0232936355487258,-0.262792270531401,0.152434301521438,0.245971370143149,-0.138380952380952,-0.234752066115702,-0.0988235294117647,-0.693645833333333,-0.479790026246719,0.34393665158371,0.0317135207496653,HIT
13421,1,20,8,2,25285,1,1,0.789716609986499,0,10835.0,12363.0,0,0,0,1,1,0,14690,1,0,3,hard,0.292388269944935,-0.0168212560386472,0.826320885200553,0.249739263803681,-0.0275142857142857,0.179986225895317,0.208235294117647,0.181666666666667,0.251824146981627,1.31461538461538,0.0286880856760374,HIT
13501,1,20,9,28,30408,1,1,1.41590324090794,0,1478.0,5531.0,0,0,0,1,1,0,14778,1,1,3,hard,-0.0982891535407862,0.05543961352657,0.0513969571230982,-0.112126789366053,-0.0837047619047619,-0.0191460055096419,-0.157058823529412,-0.448854166666667,-0.218215223097113,-0.393046757164404,-0.0843373493975903,HIT
13509,1,20,9,36,12923,1,0,-0.963100472930819,0,12966.0,,0,1,1,0,0,0,14786,1,1,2,hard,0.392276860033295,0.167652173913043,0.489294605809129,0.529258691206544,0.29607619047619,0.193402203856749,-0.161764705882353,0.212083333333333,0.314593175853018,1.15912518853695,0.0390361445783132,MISS
13544,1,20,10,13,28752,1,1,1.87988399597816,0,12185.0,12539.0,0,0,0,1,1,0,14826,1,0,3,hard,0.442917146881803,0.296763285024154,0.633195020746888,0.537039877300613,0.204457142857143,0.328980716253443,0.622745098039216,0.479375,0.443713910761155,1.04161387631976,0.111566265060241,HIT
13550,1,20,10,19,56752,1,0,-0.755307136918418,0,7047.0,,0,1,1,0,0,0,14832,1,0,2,hard,0.196489947496478,0.11687922705314,0.558699861687414,0.239739263803681,0.0516857142857143,-0.0469146005509641,0.187254901960784,0.150833333333333,0.0314041994750656,0.793800904977376,-0.0721686746987951,MISS
13568,1,20,10,38,30633,1,1,1.00367580691818,0,11899.0,,0,0,0,1,1,0,14851,1,0,2,hard,0.234314252785248,-0.406531400966184,0.419100968188105,0.706978527607362,0.0451714285714285,0.115426997245179,0.0174509803921568,0.106041666666667,0.093254593175853,0.574932126696833,-0.04,HIT
13587,1,20,10,59,64868,1,1,0.702427741023712,0,7612.0,13612.0,0,0,0,1,1,0,14872,1,0,3,hard,0.398951210142144,0.049294685990338,0.408022130013831,0.196794478527607,0.256638095238095,0.543429752066116,0.696666666666667,1.2103125,0.699068241469816,1.47968325791855,0.0736546184738956,HIT
13611,1,20,11,23,53053,1,0,-1.10224690195173,0,14543.0,14841.0,0,1,1,0,0,0,14898,1,1,3,hard,-0.267661672429248,-0.436647342995169,0.247067773167358,-0.539652351738241,-0.216457142857143,-0.202727272727273,-0.0627450980392157,-0.261979166666667,-0.193083989501312,-0.24422322775264,-0.06619812583668,MISS
13624,1,20,11,37,65149,1,1,0.854127070982941,0,1454.0,,0,0,0,1,1,0,14912,1,0,2,hard,0.353431937508004,-0.0461642512077295,0.358022130013831,0.298174846625767,0.397628571428571,0.245316804407714,0.739411764705882,0.9990625,0.581351706036745,0.864917043740573,0.294497991967871,HIT
13631,1,20,11,45,18544,1,0,-1.58250847901218,0,8947.0,8964.0,0,1,1,0,0,0,14920,1,0,3,hard,0.289466000768344,0.762231884057971,0.401784232365145,0.10689672801636,0.10352380952381,0.0327961432506887,-0.109803921568627,0.292395833333333,0.196496062992126,1.15295625942685,-0.13008032128514,MISS
13671,1,20,12,24,38979,1,1,0.757765393005684,0,7280.0,9894.0,0,0,0,1,1,0,14962,1,0,3,hard,0.283826354206685,0.330367149758454,0.417372060857538,0.470674846625767,0.181580952380952,-0.201487603305785,0.0615686274509804,0.207291666666667,0.161902887139108,0.704811463046757,-0.0080455153949129,HIT
13695,1,20,12,50,55006,1,1,1.03893651510589,0,8715.0,,0,0,0,1,1,0,14988,1,0,2,hard,0.219893712383148,-0.159855072463768,0.391825726141079,0.294340490797546,0.15892380952381,-0.071831955922865,0.108235294117647,0.537708333333333,0.10262467191601,0.909773755656108,0.228032128514056,HIT
13698,1,20,12,53,43819,1,0,-1.13632603094447,0,3087.0,3433.0,0,1,1,0,0,0,14991,1,1,3,hard,0.176254321936227,0.275932367149758,0.117192254495159,0.299524539877301,0.162085714285714,0.240082644628099,-0.206470588235294,-0.186770833333333,0.233858267716535,-0.257616892911011,0.129518072289157,MISS
13703,1,20,12,58,22874,1,0,-1.04403771611396,0,9019.0,,0,1,1,0,0,0,14996,1,0,2,hard,-0.0183698296836983,0.254782608695652,0.096417704011065,0.0957566462167689,-0.213247619047619,-0.362685950413223,-0.164509803921569,-0.171770833333333,-0.236548556430446,0.113469079939668,-0.0629718875502008,MISS
